TimeStamps,AnkleAccelerometer_x-axis (g),AnkleAccelerometer_y-axis (g),AnkleAccelerometer_z-axis (g),SVM(n),Theta(n),AnkleAngularVelocity_x-axis (deg/s),AnkleAngularVelocity_y-axis (deg/s),AnkleAngularVelocity_z-axis (deg/s),Ankleluminosity,RightPocketAccelerometer_x-axis (g),RightPocketAccelerometer_y-axis (g),RightPocketAccelerometer_z-axis (g),RightPocketAngularVelocity_x-axis (deg/s),RightPocketAngularVelocity_y-axis (deg/s),RightPocketAngularVelocity_z-axis (deg/s),NeckLuminosity,BeltAccelerometer_x-axis (g),BeltAccelerometer_y-axis (g),BeltAccelerometer_z-axis (g),BeltAngularVelocity_x-axis (deg/s),BeltAngularVelocity_y-axis (deg/s),BeltAngularVelocity_z-axis (deg/s),Beltluminosity,NeckAccelerometer_x-axis (g),NeckAccelerometer_y-axis (g),NeckAccelerometer_z-axis (g),NeckAngularVelocity_x-axis (deg/s),NeckAngularVelocity_y-axis (deg/s),NeckAngularVelocity_z-axis (deg/s),NeckLuminosity,WristAccelerometer_x-axis (g),WristAccelerometer_y-axis (g),WristAccelerometer_z-axis (g),WristAngularVelocity_x-axis (deg/s),WristAngularVelocity_y-axis (deg/s),WristAngularVelocity_z-axis (deg/s),WristLuminosity,BrainSensor,Infrared1,Infrared2,Infrared3,Infrared1(n),Infrared4,Infrared5,Infrared6,Infrared2(n),Subject,Activity
2018-07-04T12:04:17.738369,-1.005,0.229,-0.083,1.034096224,12.79417816,-0.671,0.488,-2.683,0,-0.981,0.26,0.098,1.768,-1.89,0.732,0,0.146,0.895,0.367,-1.463,-3.841,-2.622,392.633,-0.672,0.072,-0.815,-3.293,-7.805,9.207,1231.336,-1.24,-0.557,0.227,-75.854,44.024,315.915,2108.154,45,1,1,1,1.732,1,1,1,1.732,1,1
2018-07-04T12:04:17.738370,-1.005,0.228,-0.082,1.033795434,12.74113559,-3.415,-0.549,0.122,0,-0.981,0.26,0.098,3.354,-2.5,-0.061,0,0.146,0.895,0.367,1.037,-4.024,-1.768,392.633,-0.672,0.072,-0.815,-9.756,-8.049,5.122,1231.336,-1.24,-0.557,0.227,-28.78,55.549,344.146,2108.154,1,1,1,1,1.732,1,1,1,1.732,1,1
2018-07-04T12:04:17.738371,-1.005,0.231,-0.079,1.034227731,12.90616878,-2.622,-1.402,-0.549,0,-0.975,0.282,0.091,3.72,-2.5,-0.793,0,0.178,0.896,0.373,0.366,-2.5,-0.488,392.633,-0.705,0.084,-0.779,-17.866,-18.354,4.329,1231.336,-1.884,-0.687,0.251,27.256,87.134,372.012,2108.154,325,1,1,1,1.732,1,1,1,1.732,1,1
2018-07-04T12:04:17.738372,-1.005,0.231,-0.079,1.034227731,12.90616878,-2.561,-2.195,-1.22,0,-0.973,0.301,0.103,-1.951,-1.159,-1.28,0,0.16,0.895,0.372,0.854,1.951,1.585,392.633,-0.727,0.095,-0.758,-18.537,-10.061,0.366,1231.336,-1.884,-0.687,0.251,2.866,117.683,356.463,2108.154,396,1,1,1,1.732,1,1,1,1.732,1,1
2018-07-04T12:04:17.738373,-1.008,0.229,-0.072,1.036189654,12.76789287,-3.537,-2.073,-0.305,0,-0.973,0.301,0.103,-5.366,-1.28,-0.732,0,0.16,0.895,0.372,2.012,4.634,3.354,392.633,-0.727,0.095,-0.758,4.878,2.866,-3.232,1231.336,-1.597,-0.646,0.112,10,30.671,126.768,2108.154,-436,1,1,1,1.732,1,1,1,1.732,1,1
2018-07-04T12:04:17.738374,-1.005,0.223,-0.066,1.031557075,12.48465025,-10.488,-2.195,0.61,0,-0.983,0.266,0.117,-5,0.183,-1.89,0,0.082,0.902,0.359,6.341,0.854,2.988,392.633,-0.707,0.042,-0.778,11.463,-12.622,6.585,1231.336,-1.096,-0.204,0.179,21.524,40.427,26.89,2108.154,-290,1,1,1,1.732,1,1,1,1.732,1,1
2018-07-04T12:04:17.738375,-1.005,0.223,-0.066,1.031557075,12.48465025,-8.841,-2.561,0.793,0,-0.999,0.2,0.119,-2.683,2.5,-2.927,0,0.063,0.913,0.366,4.817,-3.963,0.427,392.633,-0.637,0.132,-0.809,-4.939,0.488,1.768,1231.336,-0.86,-0.527,0.235,-103.537,3.293,-39.939,2108.154,80,1,1,1,1.732,1,1,1,1.732,1,1
2018-07-04T12:04:17.738376,-1.008,0.22,-0.062,1.033589861,12.28944461,1.768,-0.732,8.72,0,-0.999,0.2,0.119,2.866,2.134,-3.171,0,0.063,0.913,0.366,3.171,-7.5,-1.524,392.633,-0.637,0.132,-0.809,-1.951,21.159,-2.439,1231.336,-0.86,-0.527,0.235,-127.866,-0.366,-21.28,2108.154,160,1,1,1,1.732,1,1,1,1.732,1,1
2018-07-04T12:04:17.738377,-1,0.259,-0.063,1.034915455,14.49301586,3.963,-0.732,6.829,0,-0.993,0.227,0.096,7.866,-0.122,-3.598,0,0.137,0.906,0.362,1.646,-10.427,-3.598,392.633,-0.667,0.074,-0.846,1.037,11.22,-1.463,1231.336,-0.827,-0.458,0.128,-92.317,2.561,-5.366,2108.154,116,1,1,1,1.732,1,1,1,1.732,1,1
2018-07-04T12:04:17.738378,-1,0.259,-0.063,1.034915455,14.49301586,4.451,0.183,2.622,0,-0.988,0.282,0.098,13.11,-1.646,-6.037,0,0.137,0.906,0.362,2.744,-12.5,-4.146,392.633,-0.69,0.041,-0.801,1.951,0.793,-0.427,1231.336,-0.827,-0.458,0.128,-30.976,6.707,-10,2108.154,116,1,1,1,1.732,1,1,1,1.732,1,1
2018-07-04T12:04:17.738379,-1.002,0.263,-0.064,1.0379157,14.67835101,-3.171,1.037,-0.122,0,-0.988,0.282,0.098,12.805,-5.122,-3.476,0,0.189,0.907,0.358,4.756,-10.122,-3.293,392.633,-0.69,0.041,-0.801,-1.098,4.817,-3.354,1231.336,-1.089,-0.367,0.094,11.463,8.232,-30.183,2108.154,153,1,1,1,1.732,1,1,1,1.732,1,1
2018-07-04T12:04:17.738380,-1.007,0.24,-0.064,1.037181276,13.37929683,-4.573,1.768,-2.317,0,-0.969,0.321,0.106,-0.488,-4.268,1.646,0,0.158,0.896,0.382,2.134,-1.159,-1.463,392.633,-0.68,0.076,-0.809,-5.183,-4.817,-1.28,1231.336,-1.238,-0.287,0.144,22.134,5.915,-86.707,2108.154,92,1,1,1,1.732,1,1,1,1.732,1,1
2018-07-04T12:04:17.738381,-1.007,0.24,-0.064,1.037181276,13.37929683,-7.866,-0.305,-1.402,0,-0.973,0.348,0.026,-3.049,-4.146,2.073,0,0.158,0.896,0.382,3.537,1.89,-0.488,392.633,-0.686,0.076,-0.803,5.183,3.841,-1.402,1231.336,-1.238,-0.287,0.144,25.488,9.817,-114.817,2108.154,100,1,1,1,1.732,1,1,1,1.732,1,1
2018-07-04T12:04:17.738382,-1.004,0.235,-0.059,1.032822347,13.15180604,-3.659,-0.061,-3.171,0,-0.973,0.348,0.026,-1.098,19.207,3.415,0,0.117,0.911,0.372,2.622,3.232,-0.183,392.633,-0.686,0.076,-0.803,-3.415,6.829,-1.159,1231.336,-1.178,-0.215,0.086,73.171,-2.805,-119.878,2108.154,35,1,1,1,1.732,1,1,1,1.732,1,1
2018-07-04T12:04:17.738383,-1.004,0.235,-0.059,1.032822347,13.15180604,0.549,0.793,-3.354,0,-0.987,0.185,0.209,-64.573,38.963,12.134,0,0.122,0.903,0.358,-4.268,0,2.317,392.633,-0.686,0.091,-0.804,-2.073,-0.61,0.183,1231.336,-1.003,-0.017,0.084,101.22,-19.817,-88.598,2108.154,40,1,1,1,1.732,1,1,1,1.732,1,1
2018-07-04T12:04:17.738384,-1.006,0.236,-0.061,1.035110139,13.17906133,3.963,0.671,-2.988,0,-0.983,0.279,0.063,13.537,-3.659,-1.951,0,0.122,0.903,0.358,6.646,0.732,2.073,392.633,-0.69,0.056,-0.793,0.915,6.707,-3.537,1231.336,-1.003,-0.017,0.084,20.671,-14.573,-81.098,2108.154,92,1,1,1,1.732,1,1,1,1.732,1,1
2018-07-04T12:04:17.738385,-1.004,0.229,-0.063,1.031710231,12.82427032,2.378,0.61,-2.317,0,-0.983,0.279,0.063,-8.354,2.195,-0.549,0,0.134,0.915,0.363,0.183,0,0.671,392.633,-0.69,0.056,-0.793,-1.524,5.671,-1.951,1231.336,-0.876,-0.185,0.06,-55.488,-8.11,-70.427,2108.154,57,1,1,1,1.732,1,1,1,1.732,1,1
2018-07-04T12:04:17.738386,-1.004,0.229,-0.063,1.031710231,12.82427032,2.866,0.732,-2.439,0,-0.982,0.265,0.1,-0.976,-0.183,-0.915,0,0.129,0.906,0.342,0.305,0.732,2.622,392.633,-0.679,0.061,-0.795,0.732,-3.72,-1.951,1231.336,-0.876,-0.185,0.06,-69.39,-5.671,-34.878,2108.154,20,1,1,1,1.732,1,1,1,1.732,1,1
2018-07-04T12:04:17.738387,-1.004,0.228,-0.066,1.031676306,12.76774819,2.988,0.793,-3.049,0,-0.982,0.265,0.1,-3.659,-1.037,-1.463,0,0.129,0.906,0.342,2.805,-1.28,2.073,392.633,-0.679,0.061,-0.795,5.183,6.22,-3.049,1231.336,-0.857,-0.299,0.013,4.512,0.061,37.561,2108.154,92,1,1,1,1.732,1,1,1,1.732,1,1
2018-07-04T12:04:17.738388,-1.004,0.228,-0.066,1.031676306,12.76774819,0.732,1.098,-3.841,0,-0.986,0.247,0.11,-1.829,-2.012,-0.305,0,0.115,0.904,0.361,-1.159,-2.622,0.793,392.633,-0.67,0.062,-0.805,2.988,1.89,-1.28,1231.336,-0.958,-0.267,0.081,23.537,3.537,65.305,2108.154,84,1,1,1,1.732,1,1,1,1.732,1,1
2018-07-04T12:04:17.738389,-1.008,0.219,-0.065,1.033561803,12.23305411,1.585,1.22,-1.768,0,-0.981,0.266,0.106,0.366,-2.683,0.305,0,0.115,0.904,0.361,-0.549,-2.012,-0.976,392.633,-0.67,0.062,-0.805,1.098,0.244,-1.098,1231.336,-0.958,-0.267,0.081,17.5,9.512,85.549,2108.154,144,1,1,1,1.732,1,1,1,1.732,1,1
2018-07-04T12:04:17.738390,-1.009,0.223,-0.067,1.035518711,12.43612109,2.256,1.28,-1.402,0,-0.981,0.266,0.106,4.207,-1.768,0.549,0,0.141,0.898,0.353,-0.305,-2.073,-1.28,392.633,-0.678,0.069,-0.808,-2.439,2.988,-0.305,1231.336,-1.093,-0.312,0.119,8.171,14.573,96.463,2108.154,118,1,1,1,1.732,1,1,1,1.732,1,1
2018-07-04T12:04:17.738391,-1.009,0.223,-0.067,1.035518711,12.43612109,2.195,1.341,-1.463,0,-0.985,0.265,0.105,1.341,-1.402,-0.793,0,0.141,0.898,0.353,0.915,-2.805,-0.305,392.633,-0.678,0.065,-0.812,-1.951,5.793,-0.122,1231.336,-1.093,-0.312,0.119,8.476,14.634,96.646,2108.154,85,1,1,1,1.732,1,1,1,1.732,1,1
2018-07-04T12:04:17.738392,-1.007,0.22,-0.069,1.033058566,12.29586381,1.585,1.463,-1.707,0,-0.985,0.265,0.105,-0.305,-1.402,-1.707,0,0.147,0.911,0.348,2.622,-0.854,0.244,392.633,-0.678,0.065,-0.812,-1.037,6.341,0.915,1231.336,-1.111,-0.34,0.113,17.744,12.561,87.439,2108.154,123,1,1,1,1.732,1,1,1,1.732,1,1
2018-07-04T12:04:17.738393,-1.007,0.22,-0.069,1.033058566,12.29586381,0.488,1.402,-1.646,0,-0.985,0.265,0.103,-0.854,-0.915,-0.427,0,0.137,0.908,0.35,1.159,-0.427,0.305,392.633,-0.662,0.068,-0.821,-0.793,2.683,1.22,1231.336,-1.041,-0.321,0.115,16.037,2.439,48.598,2108.154,-23,1,1,1,1.732,1,1,1,1.732,1,1
2018-07-04T12:04:17.738394,-1.009,0.216,-0.071,1.03430073,12.05419137,-0.122,0.915,0.61,0,-0.981,0.258,0.103,-0.976,-0.61,-0.488,0,0.135,0.905,0.348,0.793,-1.28,-0.244,392.633,-0.657,0.069,-0.834,3.78,-4.146,1.951,1231.336,-1.004,-0.324,0.095,-9.329,-4.024,7.744,2108.154,27,1,1,1,1.732,1,1,1,1.732,1,1
2018-07-04T12:04:17.738395,-1.009,0.216,-0.071,1.03430073,12.05419137,0.305,0.549,1.037,0,-0.988,0.251,0.097,-0.427,0.366,-1.585,0,0.139,0.916,0.337,1.951,-2.073,-0.244,392.633,-0.652,0.066,-0.836,4.39,0.61,2.073,1231.336,-0.991,-0.314,0.068,-15.061,-5.183,-21.098,2108.154,-177,1,1,1,1.732,1,1,1,1.732,1,1
2018-07-04T12:04:17.738396,-1.01,0.22,-0.07,1.036050192,12.25980632,0.549,0.061,0.671,0,-0.991,0.249,0.096,0.732,-0.915,-1.341,0,0.139,0.916,0.337,0.671,-2.805,-0.427,392.633,-0.657,0.064,-0.822,4.085,-1.524,1.707,1231.336,-0.991,-0.314,0.068,-10.915,-3.963,-30.488,2108.154,-243,1,1,1,1.732,1,1,1,1.732,1,1
2018-07-04T12:04:17.738397,-1.008,0.218,-0.069,1.033609694,12.17576411,0,-0.061,0.549,0,-0.991,0.249,0.096,1.89,-1.28,-0.427,0,0.144,0.914,0.344,-0.488,-2.805,-1.037,392.633,-0.657,0.064,-0.822,2.561,-0.915,2.317,1231.336,-1.01,-0.292,0.072,-4.207,-2.805,-38.049,2108.154,26,1,1,1,1.732,1,1,1,1.732,1,1
2018-07-04T12:04:17.738398,-1.008,0.218,-0.069,1.033609694,12.17576411,-0.061,-0.122,0.427,0,-0.986,0.258,0.097,2.195,-2.256,0.61,0,0.146,0.903,0.347,-1.524,-3.11,-1.524,392.633,-0.667,0.065,-0.815,3.659,-1.524,2.073,1231.336,-1.01,-0.292,0.072,2.317,-0.793,-44.939,2108.154,164,1,1,1,1.732,1,1,1,1.732,1,1
2018-07-04T12:04:17.738399,-1.007,0.219,-0.069,1.032846068,12.24166263,-0.305,-0.366,0.793,0,-0.986,0.258,0.097,2.195,-2.561,0.488,0,0.146,0.903,0.347,-0.549,-2.378,-1.159,392.633,-0.667,0.065,-0.815,2.134,-2.5,2.866,1231.336,-1.026,-0.264,0.086,7.805,1.829,-49.573,2108.154,13,1,1,1,1.732,1,1,1,1.732,1,1
2018-07-04T12:04:17.738400,-1.007,0.219,-0.069,1.032846068,12.24166263,-0.61,-0.488,0.793,0,-0.981,0.27,0.102,1.89,-2.805,0.305,0,0.141,0.901,0.354,-0.549,-1.585,-0.793,392.633,-0.672,0.062,-0.809,3.049,-1.341,2.012,1231.336,-1.026,-0.264,0.086,12.622,1.89,-51.463,2108.154,13,1,1,1,1.732,1,1,1,1.732,1,1
2018-07-04T12:04:17.738401,-1.006,0.22,-0.066,1.031887591,12.31003563,-0.976,-0.61,0.549,0,-0.978,0.274,0.11,0,-1.89,-0.122,0,0.141,0.901,0.354,-0.183,-1.159,-0.671,392.633,-0.672,0.062,-0.809,3.11,-1.037,1.037,1231.336,-1.005,-0.231,0.093,12.683,0.854,-42.256,2108.154,37,1,1,1,1.732,1,1,1,1.732,1,1
2018-07-04T12:04:17.738402,-1.006,0.22,-0.066,1.031887591,12.31003563,-1.098,-0.549,0.61,0,-0.978,0.274,0.11,-0.488,-1.768,-0.183,0,0.128,0.902,0.361,0.976,-0.305,-0.305,392.633,-0.681,0.062,-0.803,2.256,0.244,0.122,1231.336,-0.97,-0.223,0.097,7.927,1.098,-32.134,2108.154,124,1,1,1,1.732,1,1,1,1.732,1,1
2018-07-04T12:04:17.738403,-1.009,0.225,-0.064,1.035761556,12.54647546,-1.707,0.183,-1.524,0,-0.98,0.278,0.12,-0.976,-1.768,-0.61,0,0.128,0.902,0.361,0.976,0.732,-0.427,392.633,-0.687,0.061,-0.801,0.915,2.439,0.427,1231.336,-0.97,-0.223,0.097,3.11,1.951,-19.39,2108.154,247,1,1,1,1.732,1,1,1,1.732,1,1
2018-07-04T12:04:17.738404,-1.01,0.237,-0.061,1.039225673,13.18255387,-9.329,0.915,-3.659,0,-0.98,0.278,0.12,-0.366,-1.524,-0.793,0,0.122,0.908,0.371,-0.183,1.28,-0.061,392.633,-0.687,0.061,-0.801,0.793,0.732,0.122,1231.336,-0.958,-0.24,0.096,0.61,1.829,-5.427,2108.154,742,1,1,1,1.732,1,1,1,1.732,1,1
2018-07-04T12:04:17.738405,-1.01,0.237,-0.061,1.039225673,13.18255387,-5.305,2.256,-10.671,0,-0.981,0.285,0.124,1.28,-2.195,0.427,0,0.123,0.907,0.375,1.829,0.732,-1.159,392.633,-0.692,0.054,-0.803,1.402,3.78,-0.793,1231.336,-0.966,-0.267,0.103,-4.756,2.927,20.793,2108.154,285,1,1,1,1.732,1,1,1,1.732,1,1
2018-07-04T12:04:17.738406,-1.012,0.192,-0.065,1.032101255,10.72108806,-7.683,1.22,-5.427,0,-0.97,0.292,0.117,3.11,-4.634,3.232,0,0.123,0.907,0.375,4.024,1.951,-1.402,392.633,-0.682,0.055,-0.794,-0.183,-4.024,-0.671,1231.336,-0.966,-0.267,0.103,-5.976,2.988,32.256,2108.154,-220,1,1,1,1.732,1,1,1,1.732,1,1
2018-07-04T12:04:17.738407,-1.014,0.186,-0.063,1.032841227,10.37475527,0.549,0.915,-4.024,0,-0.97,0.292,0.117,0.122,-3.963,4.268,0,0.12,0.889,0.367,-1.28,2.866,0.305,392.633,-0.682,0.055,-0.794,0.976,-0.732,0,1231.336,-0.989,-0.29,0.108,-8.841,3.11,39.939,2108.154,-484,1,1,1,1.732,1,1,1,1.732,1,1
2018-07-04T12:04:17.738408,-1.014,0.186,-0.063,1.032841227,10.37475527,5.183,0.671,-1.524,0,-0.967,0.273,0.113,-4.268,3.841,-2.5,0,0.115,0.895,0.354,5,1.463,1.707,392.633,-0.682,0.052,-0.803,0.854,2.439,-0.793,1231.336,-0.989,-0.29,0.108,-21.829,3.537,42.5,2108.154,-356,1,1,1,1.732,1,1,1,1.732,1,1
2018-07-04T12:04:17.738409,-1.021,0.216,-0.063,1.045497967,11.9231843,8.476,0.976,-2.866,0,-0.985,0.257,0.107,-1.951,3.72,-5.244,0,0.115,0.895,0.354,4.878,0.793,1.768,392.633,-0.682,0.052,-0.803,-0.976,-3.049,-1.829,1231.336,-1.039,-0.35,0.076,-31.159,2.134,41.585,2108.154,-165,1,1,1,1.732,1,1,1,1.732,1,1
2018-07-04T12:04:17.738410,-1.021,0.216,-0.063,1.045497967,11.9231843,6.22,2.805,-7.012,0,-0.985,0.257,0.107,-2.256,5.732,-8.659,0,0.138,0.95,0.323,9.573,-1.402,2.805,392.633,-0.707,0.053,-0.814,0.854,3.963,-2.317,1231.336,-1.032,-0.35,0.065,0.305,-0.366,33.232,2108.154,-21,1,1,1,1.732,1,1,1,1.732,1,1
2018-07-04T12:04:17.738411,-1.026,0.186,-0.073,1.045275562,10.2499978,3.963,2.927,-8.232,0,-1.008,0.249,0.098,-0.732,2.5,-5.61,0,0.138,0.95,0.323,6.707,-1.159,3.171,392.633,-0.655,0.047,-0.817,-1.22,0.976,-2.134,1231.336,-1.032,-0.35,0.065,3.72,0.488,22.866,2108.154,88,1,1,1,1.732,1,1,1,1.732,1,1
2018-07-04T12:04:17.738412,-1.007,0.16,-0.08,1.022765369,9.000240864,5.549,1.28,-4.146,0,-1.008,0.249,0.098,2.439,-3.049,-1.22,0,0.137,0.937,0.327,5.122,-0.671,3.11,392.633,-0.655,0.047,-0.817,-2.561,20.915,-2.561,1231.336,-0.982,-0.324,0.095,2.073,2.622,10.976,2108.154,92,1,1,1,1.732,1,1,1,1.732,1,1
2018-07-04T12:04:17.738413,-1.007,0.16,-0.08,1.022765369,9.000240864,1.89,2.073,-2.195,0,-0.996,0.24,0.096,-0.061,-1.951,0.488,0,0.127,0.892,0.309,-2.073,-0.061,-0.244,392.633,-0.608,0.066,-0.84,0.549,4.329,-0.549,1231.336,-0.982,-0.324,0.095,5.061,1.22,-0.122,2108.154,136,1,1,1,1.732,1,1,1,1.732,1,1
2018-07-04T12:04:17.738414,-1.012,0.171,-0.084,1.02977716,9.558546992,4.634,1.463,-1.28,0,-0.982,0.229,0.099,2.744,-1.89,-2.134,0,0.127,0.892,0.309,2.256,-2.256,-1.037,429.443,-0.608,0.066,-0.84,-3.293,23.902,-0.976,1187.924,-1.05,-0.176,0.233,10.366,-6.707,-9.39,2369.185,152,1,1,1,1.732,1,1,1,1.732,1,1
2018-07-04T12:04:17.738415,-1.012,0.171,-0.084,1.02977716,9.558546992,6.037,0.183,-1.463,0,-0.982,0.229,0.099,0.854,0.549,-2.866,0,0.146,0.924,0.321,5.915,-2.195,-0.427,429.443,-0.643,0.154,-0.86,-5.183,35.976,-6.159,1187.924,-1.05,-0.176,0.233,-57.5,-30.976,-33.11,2369.185,88,1,1,1,1.732,1,1,1,1.732,1,1
2018-07-04T12:04:17.738416,-1.012,0.163,-0.073,1.027639042,9.126573368,2.5,1.707,-2.683,0,-0.991,0.244,0.088,4.634,-0.366,-2.073,0,0.146,0.924,0.321,-0.305,-1.341,-2.683,429.443,-0.633,0.167,-0.869,-73.171,-20.671,-27.927,1187.924,-1.098,-0.133,0.158,-535.183,-72.805,-137.378,2369.185,300,1,1,1,1.732,1,1,1,1.732,1,1
2018-07-04T12:04:17.738417,-1.014,0.162,-0.076,1.029667908,9.052086009,1.524,0.671,-1.585,0,-0.991,0.244,0.088,6.159,-1.402,-0.305,0,0.148,0.907,0.311,3.659,-2.073,-1.951,429.443,-0.633,0.167,-0.869,-154.085,22.866,-25.366,1187.924,-0.887,-0.946,-0.381,-482.744,-49.024,-136.89,2369.185,28,1,1,1,1.732,1,1,1,1.732,1,1
2018-07-04T12:04:17.738418,-1.014,0.162,-0.076,1.029667908,9.052086009,-2.561,0.854,-1.524,0,-0.971,0.256,0.096,7.378,-4.512,-0.793,0,0.211,0.9,0.335,2.195,2.439,1.585,429.443,-0.599,0.147,-0.853,-92.378,-37.805,-65.183,1187.924,-0.887,-0.946,-0.381,-127.317,6.829,-97.805,2369.185,-34,1,1,1,1.732,1,1,1,1.732,1,1
2018-07-04T12:04:17.738419,-1.02,0.166,-0.072,1.035924708,9.221018853,-2.927,1.037,-2.439,0,-0.959,0.315,0.095,0.732,0.854,-1.951,0,0.211,0.9,0.335,0.793,7.561,6.159,429.443,-0.599,0.147,-0.853,-46.463,8.841,-70.915,1187.924,-0.938,-0.433,-0.204,202.5,30.244,-78.049,2369.185,-11,1,1,1,1.732,1,1,1,1.732,1,1
2018-07-04T12:04:17.738420,-1.02,0.166,-0.072,1.035924708,9.221018853,-4.756,2.012,-3.902,0,-0.959,0.315,0.095,-15.366,7.256,-2.134,0,0.174,0.911,0.318,3.049,12.622,6.159,429.443,-0.654,0.158,-0.821,-55.244,30.61,-82.683,1187.924,-0.943,-0.003,0.106,47.683,-9.634,-55,2369.185,25,1,1,1,1.732,1,1,1,1.732,1,1
2018-07-04T12:04:17.738421,-1.019,0.157,-0.08,1.034122817,8.732383489,-6.585,1.585,-4.451,0,-0.985,0.271,0.1,-21.402,6.402,-2.317,0,0.131,0.915,0.321,4.695,18.902,8.293,429.443,-0.627,0.064,-0.851,-22.073,19.024,-42.561,1187.924,-0.82,-0.422,-0.063,-122.073,-27.5,-32.317,2369.185,22,1,1,1,1.732,1,1,1,1.732,1,1
2018-07-04T12:04:17.738422,-1.018,0.131,-0.085,1.029907763,7.307581466,-1.951,-0.061,3.232,0,-0.988,0.232,0.09,-24.268,8.415,-1.951,0,0.117,0.896,0.329,3.415,17.195,8.049,429.443,-0.623,0.049,-0.84,-15.122,15.122,-23.293,1187.924,-0.82,-0.422,-0.063,-56.524,-21.402,-10.793,2369.185,11,1,1,1,1.732,1,1,1,1.732,1,1
2018-07-04T12:04:17.738423,-1.008,0.161,-0.085,1.024309524,9.043196064,-6.585,-0.732,5.183,0,-0.987,0.206,0.073,-17.866,10.488,-8.537,0,0.118,0.91,0.32,6.28,10.366,6.829,429.443,-0.664,0.107,-0.808,-8.537,-2.134,6.829,1187.924,-0.794,-0.484,-0.012,6.341,-13.659,48.11,2369.185,24,1,1,1,1.732,1,1,1,1.732,1,1
2018-07-04T12:04:17.738424,-1.005,0.176,-0.074,1.022974584,9.906873923,-25.366,-6.098,4.512,0,-0.99,0.194,0.079,-8.72,10.976,-8.11,0,0.102,0.891,0.319,1.585,1.159,0.488,429.443,-0.658,0.097,-0.782,0.732,-7.744,3.415,1187.924,-0.788,-0.668,-0.026,2.744,-22.805,85.976,2369.185,74,1,1,1,1.732,1,1,1,1.732,1,1
2018-07-04T12:04:17.738425,-1.049,0.18,-0.051,1.065552439,9.725406968,-9.817,-1.524,-2.012,0,-1,0.227,0.092,0.427,6.098,-3.354,0,0.102,0.891,0.319,11.646,-4.085,0.366,429.443,-0.72,0.074,-0.829,3.171,5.732,10,1187.924,-0.819,-0.837,-0.044,132.866,-8.902,94.695,2369.185,-19,1,1,1,1.732,1,1,1,1.732,1,1
2018-07-04T12:04:17.738426,-1.049,0.18,-0.051,1.065552439,9.725406968,-1.037,1.402,-1.768,0,-1,0.227,0.092,-0.061,1.28,-0.854,0,0.09,0.966,0.41,14.573,-6.646,0.732,429.443,-0.72,0.074,-0.829,10.488,-3.476,13.171,1187.924,-0.84,-0.794,0.178,229.512,7.195,97.195,2369.185,108,1,1,1,1.732,1,1,1,1.732,1,1
2018-07-04T12:04:17.738427,-1.012,0.17,-0.054,1.027599144,9.522456562,-6.585,0.488,1.28,0,-1.01,0.228,0.087,7.744,2.5,-5.122,0,0.128,0.862,0.29,-0.488,-12.378,-1.28,429.443,-0.663,-0.001,-0.833,11.646,-7.988,17.439,1187.924,-0.84,-0.794,0.178,294.024,29.024,82.988,2369.185,192,1,1,1,1.732,1,1,1,1.732,1,1
2018-07-04T12:04:17.738428,-1.015,0.175,-0.068,1.032218,9.760948621,-7.5,3.11,-1.098,0,-0.984,0.217,0.073,7.256,6.707,-10.549,0,0.128,0.862,0.29,25.976,-18.171,0.549,429.443,-0.663,-0.001,-0.833,38.659,-17.378,49.146,1187.924,-0.85,-0.997,0.928,258.049,28.049,44.695,2369.185,92,1,1,1,1.732,1,1,1,1.732,1,1
2018-07-04T12:04:17.738429,-1.015,0.175,-0.068,1.032218,9.760948621,-3.415,1.585,-1.829,0,-0.984,0.217,0.073,10.305,2.134,-11.098,0,0.187,0.929,0.292,11.951,-11.951,-0.61,429.443,-0.7,-0.017,-0.716,111.585,-33.537,105,1187.924,-0.85,-0.997,0.928,214.329,0.61,-1.524,2369.185,56,1,1,1,1.732,1,1,1,1.732,1,1
2018-07-04T12:04:17.738430,-1.025,0.18,-0.062,1.042530095,9.942332105,-0.488,2.927,-4.329,0,-0.984,0.229,0.047,4.329,1.22,-8.963,0,0.187,0.929,0.292,6.28,-6.28,1.22,429.443,-0.815,0.178,-0.618,121.89,-52.866,87.927,1187.924,-1.119,-1.109,0.937,138.293,-52.012,-57.073,2369.185,89,1,1,1,1.732,1,1,1,1.732,1,1
2018-07-04T12:04:17.738431,-1.025,0.18,-0.062,1.042530095,9.942332105,4.085,4.573,-8.049,0,-0.984,0.229,0.047,5.488,3.171,-6.28,0,0.13,0.926,0.325,17.378,-6.463,2.988,429.443,-0.815,0.178,-0.618,104.878,-19.634,63.171,1187.924,-1.119,-1.109,0.937,117.622,-89.573,-95.244,2369.185,92,1,1,1,1.732,1,1,1,1.732,1,1
2018-07-04T12:04:17.738432,-1.034,0.19,-0.065,1.05331904,10.39202234,8.72,4.634,-12.439,0,-1.001,0.216,0.057,12.805,-4.573,-8.415,0,0.13,0.926,0.325,16.646,-6.28,0.671,429.443,-0.727,0.161,-0.689,90.915,53.049,38.78,1187.924,-1.208,-0.702,0.389,112.561,-116.037,-133.963,2369.185,-18,1,1,1,1.732,1,1,1,1.732,1,1
2018-07-04T12:04:17.738433,-1.056,0.151,-0.068,1.068906451,8.121103321,14.268,7.866,-32.866,2.323,-0.997,0.228,0.088,19.329,-6.951,-6.402,0,0.094,0.9,0.343,15.061,-19.512,-0.61,429.443,-0.695,0.014,-0.8,55.366,76.707,18.841,1187.924,-0.963,-0.293,0.254,86.768,-112.073,-134.39,2369.185,88,1,0,1,1.414,1,0,0,1,1,1
2018-07-04T12:04:17.738434,-1.056,0.151,-0.068,1.068906451,8.121103321,11.28,8.598,-41.829,2.323,-0.997,0.228,0.088,27.256,-12.073,-5.244,0,0.168,0.882,0.346,18.293,-22.927,-0.122,429.443,-0.695,0.014,-0.8,33.902,23.476,32.012,1187.924,-0.963,-0.293,0.254,76.402,-95.244,-116.829,2369.185,346,1,0,1,1.414,1,0,0,1,1,1
2018-07-04T12:04:17.738435,-1.061,0.062,-0.095,1.067047328,3.331005218,-4.512,9.695,-42.256,2.323,-0.969,0.295,0.097,31.341,-19.634,-2.683,0,0.168,0.882,0.346,13.598,-23.293,-0.61,429.443,-0.625,0.007,-0.827,25.61,37.561,25.427,1187.924,-0.653,-0.115,0.378,50.183,-50.854,-56.28,2369.185,483,1,0,1,1.414,1,0,0,1,1,1
2018-07-04T12:04:17.738436,-1.061,0.062,-0.095,1.067047328,3.331005218,-8.476,10.488,-41.646,2.323,-0.922,0.311,0.129,24.329,-15.854,-7.683,0,0.156,0.863,0.327,22.073,-18.171,1.585,429.443,-0.625,0.007,-0.827,22.073,48.293,20.793,1187.924,-0.501,-0.112,0.448,52.744,-32.744,-29.817,2369.185,-387,1,0,1,1.414,1,0,0,1,1,1
2018-07-04T12:04:17.738437,-1.082,0.04,-0.086,1.086149161,2.110529226,-2.012,10.061,-48.78,2.323,-0.922,0.311,0.129,20.671,-8.171,-10.183,0,0.19,0.88,0.329,25.854,-13.963,6.159,429.443,-0.602,0.055,-0.819,6.22,23.963,15.366,1187.924,-0.501,-0.112,0.448,56.22,-12.805,-13.841,2369.185,-356,1,0,1,1.414,1,0,0,1,1,1
2018-07-04T12:04:17.738438,-1.091,-0.022,-0.108,1.096553236,-1.149594644,-8.78,17.256,-71.524,2.323,-0.916,0.342,0.149,9.878,-1.463,-13.232,0,0.19,0.88,0.329,21.463,-8.537,9.146,429.443,-0.602,0.055,-0.819,9.512,35.305,13.11,1187.924,-0.394,-0.122,0.422,12.134,2.256,-11.22,2369.185,-334,1,0,1,1.414,1,0,0,1,1,1
2018-07-04T12:04:17.738439,-1.091,-0.022,-0.108,1.096553236,-1.149594644,-14.634,19.878,-80.122,2.323,-0.896,0.31,0.171,-14.085,6.402,-13.659,0,0.128,0.849,0.295,23.11,-2.561,8.659,429.443,-0.577,0.047,-0.78,-1.159,31.28,15.061,1187.924,-0.394,-0.122,0.422,32.683,20.732,10.915,2369.185,44,1,0,1,1.414,1,0,0,1,1,1
2018-07-04T12:04:17.738440,-1.056,-0.135,-0.13,1.072502214,-7.231223228,-11.159,20.671,-94.573,2.323,-0.896,0.31,0.171,-17.134,8.415,-13.11,0,0.061,0.786,0.244,29.329,-2.134,5.061,429.443,-0.544,0.058,-0.706,5.61,41.098,15.122,1187.924,-0.297,-0.063,0.44,26.159,55.793,30.305,2369.185,122,1,0,1,1.414,1,0,0,1,1,1
2018-07-04T12:04:17.738441,-1.056,-0.135,-0.13,1.072502214,-7.231223228,-5.427,24.878,-105.549,2.323,-0.836,0.202,0.135,-17.256,13.415,-9.756,0,0.061,0.786,0.244,21.585,-2.561,2.195,429.443,-0.544,0.058,-0.706,14.573,34.756,15.61,1187.924,-0.279,-0.055,0.517,33.841,72.927,42.195,2369.185,144,1,0,1,1.414,1,0,0,1,1,1
2018-07-04T12:04:17.738442,-1.188,-0.091,-0.117,1.197210925,-4.359256591,5,43.049,-162.683,2.323,-0.836,0.202,0.135,-8.171,11.646,-11.89,0,0.041,0.618,0.192,11.037,-14.39,-1.28,429.443,-0.419,0.036,-0.546,35.671,19.756,5.427,1187.924,-0.279,-0.055,0.517,28.232,75.305,36.463,2369.185,104,1,0,1,1.414,1,0,0,1,1,1
2018-07-04T12:04:17.738443,-0.775,-0.341,-0.171,0.863798009,-23.25151915,35.366,40.488,-201.951,2.323,-0.743,0.152,0.123,2.012,0.488,-6.768,0,0.041,0.618,0.192,1.951,-31.524,-7.195,429.443,-0.289,0.091,-0.322,40.488,61.037,1.524,1187.924,-0.165,-0.13,0.6,83.11,75.61,33.354,2369.185,76,1,0,1,1.414,1,0,0,1,1,1
2018-07-04T12:04:17.738444,-0.775,-0.341,-0.171,0.863798009,-23.25151915,33.963,36.28,-199.146,2.323,-0.515,0.134,0.01,-5,-41.159,18.598,0,0.066,0.388,0.157,15.427,-36.646,-19.146,429.443,-0.289,0.091,-0.322,39.817,24.39,2.744,1187.924,-0.165,-0.13,0.6,110.122,71.585,24.634,2369.185,82,1,0,1,1.414,1,0,0,1,1,1
2018-07-04T12:04:17.738445,-0.063,-0.876,-0.568,1.04592973,-56.88045349,48.049,40.427,-186.646,2.323,-0.343,-0.029,0.014,42.134,-22.195,-8.963,0,-0.019,0.228,0.011,-23.841,-29.146,-46.28,429.443,-0.408,0.074,-0.197,58.232,32.744,7.866,1187.924,-0.133,0.197,0.221,114.146,28.354,22.561,2369.185,92,1,0,1,1.414,1,0,0,1,1,1
2018-07-04T12:04:17.738446,-0.238,-2.177,0.041,2.190354766,-83.66977065,190.854,7.439,-147.439,2.323,-1.203,-0.245,0.016,41.829,-2.317,-79.146,0,-0.004,0.646,-0.353,201.707,-80.244,-29.634,429.443,-0.607,0.11,-0.135,66.159,6.585,0.183,1187.924,-3.066,-0.699,-1.536,14.512,48.659,30.854,2369.185,135,1,0,1,1.414,1,0,0,1,1,1
2018-07-04T12:04:17.738447,-0.238,-2.177,0.041,2.190354766,-83.66977065,190.854,7.439,-147.439,2.323,-1.203,-0.245,0.016,31.402,13.659,-135.366,0,-0.306,1.296,-0.503,220.671,-93.78,-51.402,429.443,-0.31,-0.01,-0.399,47.012,43.049,-15.061,1187.924,-3.066,-0.699,-1.536,-72.073,110.671,-187.988,2369.185,102,1,0,1,1.414,1,0,0,1,1,1
2018-07-04T12:04:17.738448,-1.751,-1.808,0.386,2.546342671,-45.23800535,166.281,23.902,-115.976,2.323,-2.085,-0.165,0.328,50,7.256,-212.256,0,-0.306,1.296,-0.503,315.305,-105.732,-90.061,429.443,0.857,-0.386,-2.129,-49.634,169.512,-103.842,1187.924,-3.841,-0.825,3.09,-219.329,-58.232,-299.146,2369.185,48,1,0,1,1.414,1,0,0,1,1,1
2018-07-04T12:04:17.738449,-1.751,-1.808,0.386,2.546342671,-45.23800535,64.573,-38.476,-123.415,2.323,-1.076,0.223,0.309,90.366,-20.122,-375,0,0.118,1.127,-1.228,445.976,-74.329,-83.659,429.443,0.857,-0.386,-2.129,-69.329,102.439,-21.829,1187.924,-3.841,-0.825,3.09,-80.488,-62.378,-260.61,2369.185,107,1,0,1,1.414,1,0,0,1,1,1
2018-07-04T12:04:17.738450,-0.969,-0.633,0.313,1.199007506,-31.86614795,37.378,-40.427,-136.281,2.323,-1.076,0.223,0.309,89.268,65.427,-366.342,0,0.118,1.127,-1.228,676.768,-37.805,-14.024,429.443,0.755,-0.678,-2.231,60.671,43.171,35.854,1187.924,0.631,-0.494,0.927,-19.329,-122.866,-136.585,2369.185,42,1,0,1,1.414,1,0,0,1,1,1
2018-07-04T12:04:17.738451,-0.969,-0.633,0.313,1.199007506,-31.86614795,79.207,-22.195,-137.561,2.323,0.192,-1.305,0.091,-87.622,127.744,-308.476,0,-0.502,-0.216,-1.57,428.232,-229.268,-28.171,429.443,0.755,-0.678,-2.231,152.683,-105,0.854,1187.924,-0.375,-0.359,-0.055,-49.695,-66.037,-11.829,2369.185,36,1,0,1,1.414,1,0,0,1,1,1
2018-07-04T12:04:17.738452,0.225,-0.121,0.362,0.443068843,-15.84853607,184.451,-45.671,-196.037,2.323,0.192,-1.305,0.091,-55.732,25.305,-247.256,0,-0.84,-0.354,-1.919,135.854,19.39,-19.695,292.824,0.62,-0.677,-1.601,49.573,-177.195,46.829,783.897,-0.375,-0.359,-0.055,-13.963,-0.061,-2.012,2101.073,184,1,0,0,1,0,0,0,0,1,1
2018-07-04T12:04:17.738453,0.225,-0.121,0.362,0.443068843,-15.84853607,202.622,-44.451,-231.829,2.323,-0.125,-2.343,0.007,42.927,-72.195,-189.024,0,-0.84,-0.354,-1.919,101.646,-6.341,-11.28,292.824,0.62,-0.677,-1.601,58.537,-34.939,27.256,783.897,-1.725,-0.966,0.8,-59.329,96.463,-17.683,2101.073,-84,1,0,0,1,0,0,0,0,1,1
2018-07-04T12:04:17.738454,0.743,0.526,0.483,1.030540635,30.69125694,-22.134,-1.951,-188.171,2.323,-0.125,-2.343,0.007,-43.415,-67.378,-102.439,0,-0.418,-0.343,-1.213,75.854,11.829,-28.476,292.824,0.254,-0.82,-1.655,-8.902,50.854,5.122,783.897,-1.725,-0.966,0.8,-118.963,148.963,30.61,2101.073,-36,1,0,0,1,0,0,0,0,1,1
2018-07-04T12:04:17.738455,0.525,0.987,0.579,1.258981731,51.62522947,-36.28,-27.134,-173.598,2.323,0.249,-1.385,-0.015,-37.683,-21.646,-29.573,0,-0.418,-0.343,-1.213,10.61,55.305,-36.341,292.824,0.23,-0.392,-1.338,-52.744,98.415,-22.134,783.897,-0.944,-0.776,0.372,-60.671,116.951,101.524,2101.073,22,1,0,0,1,0,0,0,0,1,1
2018-07-04T12:04:17.738456,0.525,0.987,0.579,1.258981731,51.62522947,-82.622,-58.72,-137.927,2.323,0.447,-0.5,-0.139,-50.793,-5.549,-13.841,0,-0.079,-0.309,-0.631,-64.146,64.939,-15.366,292.824,0.23,-0.392,-1.338,-69.878,76.098,-47.439,783.897,-0.944,-0.776,0.372,-4.878,67.439,131.768,2101.073,196,1,0,0,1,0,0,0,0,1,1
2018-07-04T12:04:17.738457,0.356,1.22,0.229,1.291346971,70.86519413,-120.671,-75.122,-68.232,2.323,0.447,-0.5,-0.139,-78.841,43.415,9.085,0,-0.125,-0.266,-0.461,-58.293,62.256,37.866,292.824,0.18,-0.307,-0.934,-85.061,29.573,-34.329,783.897,-0.145,-0.291,0.05,13.049,5.976,37.256,2101.073,-580,1,0,0,1,0,0,0,0,1,1
2018-07-04T12:04:17.738458,0.156,0.92,0.003,0.933137182,80.37442182,-78.659,-106.463,39.146,2.323,0.218,-0.307,-0.123,-73.537,60.793,38.11,0,-0.125,-0.266,-0.461,-19.024,26.707,56.341,292.824,0.214,-0.266,-0.699,-81.768,10,-44.573,783.897,-0.659,-0.641,0.186,21.829,9.817,-3.049,2101.073,329,1,0,0,1,0,0,0,0,1,1
2018-07-04T12:04:17.738459,0.156,0.92,0.003,0.933137182,80.37442182,-88.598,-96.098,103.476,2.323,-0.082,-0.469,-0.029,-80.793,61.098,55.732,0,-0.359,-0.225,-0.529,-26.463,2.134,34.573,292.824,0.214,-0.266,-0.699,-66.524,-2.805,-18.415,783.897,-0.659,-0.641,0.186,12.744,4.329,-7.073,2101.073,-193,1,0,0,1,0,0,0,0,1,1
2018-07-04T12:04:17.738460,0.285,0.292,-0.124,0.426456328,43.21300502,-99.573,-87.134,130.061,2.323,-0.082,-0.469,-0.029,-70.671,48.11,61.585,0,-0.359,-0.225,-0.529,-8.415,-10.122,11.646,292.824,0.266,-0.07,-0.835,-8.049,25.305,-15.915,783.897,-1.033,-0.574,0.271,2.439,10.793,2.561,2101.073,1461,1,0,0,1,0,0,0,0,1,1
2018-07-04T12:04:17.738461,0.285,0.292,-0.124,0.426456328,43.21300502,-77.012,-71.89,161.281,2.323,-0.093,-1.133,-0.063,32.134,50.976,64.207,0,-0.336,-0.16,-1.01,-59.634,34.512,7.256,292.824,0.266,-0.07,-0.835,32.256,1.037,7.073,783.897,-1.059,-0.518,0.174,-0.488,11.28,-1.341,2101.073,864,1,0,0,1,0,0,0,0,1,1
2018-07-04T12:04:17.738462,1.792,-1.146,-0.157,2.132892168,-32.49993227,109.817,-23.78,270.427,2.323,-0.298,-1.536,-0.598,-108.781,-9.39,59.573,0,-0.241,-0.033,-1.489,-62.805,2.256,2.195,292.824,0.407,-0.006,-1.316,14.756,-18.841,-34.085,783.897,-1.057,-0.412,0.484,-4.756,-28.537,33.902,2101.073,500,1,0,0,1,0,0,0,0,1,1
2018-07-04T12:04:17.738463,0.154,-1.51,0.171,1.527434778,-81.33480245,55,61.768,285.61,2.323,-0.298,-1.536,-0.598,-134.024,-0.854,59.207,0,0.191,0.122,-1.18,2.988,17.744,-7.134,292.824,0.381,-0.148,-1.421,5.793,-1.098,-6.646,783.897,-1.057,-0.412,0.484,15.488,-79.573,45.549,2101.073,233,1,0,0,1,0,0,0,0,1,1
2018-07-04T12:04:17.738464,-1.356,-1.339,-0.24,1.920743866,-44.19685464,-114.329,0.183,180.549,2.323,-0.59,-1.127,-0.701,-3.415,-70.427,34.573,0,0.191,0.122,-1.18,23.354,29.268,0.061,292.824,-0.032,0.013,-0.962,-28.72,-40,2.561,783.897,-0.848,-0.266,0.459,18.049,-93.963,47.317,2101.073,135,1,0,0,1,0,0,0,0,1,1
2018-07-04T12:04:17.738465,-1.356,-1.339,-0.24,1.920743866,-44.19685464,-93.598,-20.732,101.098,2.323,-0.176,-0.578,-0.32,-39.024,4.024,15.488,0,0.029,0.021,-0.827,-6.037,89.695,8.72,292.824,-0.032,0.013,-0.962,-7.439,-26.463,-19.878,783.897,-0.848,-0.266,0.459,16.22,-73.659,26.89,2101.073,-2048,1,0,0,1,0,0,0,0,1,1
2018-07-04T12:04:17.738466,-0.175,-0.905,-0.123,0.929934944,-76.70186404,-76.768,1.89,32.988,2.323,-0.176,-0.578,-0.32,5.244,44.268,-8.78,0,0.029,0.021,-0.827,-37.256,99.878,8.049,292.824,-0.134,0.076,-0.864,-48.598,-19.146,-6.585,783.897,-0.595,-0.293,0.556,28.659,-36.402,-8.963,2101.073,2047,1,0,0,1,0,0,0,0,1,1
2018-07-04T12:04:17.738467,-0.175,-0.905,-0.123,0.929934944,-76.70186404,-56.341,8.72,4.451,2.323,-0.442,-0.494,-0.212,-23.78,24.39,17.195,0,-0.006,0.122,-0.738,-27.5,45.427,1.159,292.824,-0.134,0.076,-0.864,-47.439,-14.085,-4.085,783.897,-0.595,-0.293,0.556,19.451,9.329,-32.561,2101.073,1345,1,0,0,1,0,0,0,0,1,1
2018-07-04T12:04:17.738468,-0.05,-1.495,-0.098,1.499042695,-85.79114715,-33.902,-8.171,45.549,2.323,-0.442,-0.494,-0.212,-89.573,40.854,37.012,0,-0.05,0.155,-0.941,-10.366,15.366,1.829,292.824,-0.064,0.019,-0.922,-4.024,-6.22,-8.293,783.897,-0.745,-0.532,0.49,2.012,26.524,-20.671,2101.073,-2048,1,0,0,1,0,0,0,0,1,1
2018-07-04T12:04:17.738469,-0.05,-1.495,-0.098,1.499042695,-85.79114715,43.232,-22.622,122.317,2.323,-0.586,-0.88,-0.603,-42.073,32.866,-9.085,0,-0.05,0.155,-0.941,0.549,-13.963,-1.707,292.824,-0.025,0.054,-0.929,18.11,8.72,15.183,783.897,-0.841,-0.422,0.494,11.159,44.085,-29.329,2101.073,-1073,1,0,0,1,0,0,0,0,1,1
2018-07-04T12:04:17.738470,-0.525,-1.784,-0.086,1.861632885,-73.39517229,94.329,-21.28,7.683,2.323,-0.438,-0.941,-0.709,99.817,-21.22,-25.366,0,0.044,0.121,-1.053,8.902,-32.073,-2.5,292.824,0.088,0.063,-1.09,4.329,23.902,10.793,783.897,-0.891,-0.307,0.372,-16.89,68.232,-36.585,2101.073,-169,1,0,0,1,0,0,0,0,1,1
2018-07-04T12:04:17.738471,-0.245,-1.125,0.062,1.15303686,-77.33909697,-8.049,5.061,-63.11,2.323,-0.263,-0.7,-0.362,161.22,-80.61,-16.463,0,0.184,0.057,-1.051,5.305,-23.902,-1.646,292.824,0.088,0.063,-1.09,28.232,18.78,7.927,783.897,-0.891,-0.307,0.372,-18.293,62.134,-23.354,2101.073,-221,1,0,0,1,0,0,0,0,1,1
2018-07-04T12:04:17.738472,0.032,-0.681,0.109,0.690410023,-80.52947749,-64.39,13.963,-47.073,2.323,-0.334,-0.851,-0.348,4.512,12.317,-20.976,0,0.063,0.083,-1.076,9.451,-2.866,1.463,292.824,0.205,0.022,-1.098,-9.817,10.732,13.537,783.897,-1.016,-0.549,0.27,-9.817,19.695,9.329,2101.073,-106,1,0,0,1,0,0,0,0,1,1
2018-07-04T12:04:17.738473,0.088,-0.724,0.037,0.73026639,-82.48867211,-37.256,9.146,-31.951,2.323,-0.334,-0.851,-0.348,5.793,16.89,-32.927,0,-0.066,0.071,-0.927,7.317,-2.256,1.341,292.824,0.233,-0.02,-1.112,-9.146,28.232,9.695,783.897,-0.869,-0.5,0.19,-6.951,-22.561,42.988,2101.073,453,1,0,0,1,0,0,0,0,1,1
2018-07-04T12:04:17.738474,0.088,-0.724,0.037,0.73026639,-82.48867211,-2.256,-0.305,-13.78,2.323,-0.29,-0.958,-0.371,19.695,3.049,-24.451,0,-0.066,0.071,-0.927,3.78,-5.915,0.061,292.824,0.233,-0.02,-1.112,-6.28,16.402,2.744,783.897,-0.808,-0.348,0.374,-17.378,-123.415,75.488,2101.073,212,1,0,0,1,0,0,0,0,1,1
2018-07-04T12:04:17.738475,0.102,-0.667,-0.009,0.674814048,-81.27222396,15.915,-6.646,8.537,2.323,-0.253,-0.892,-0.193,44.39,-25.549,3.659,0,-0.087,0.048,-0.868,-2.195,-13.537,-1.707,292.824,0.27,-0.076,-1.114,18.11,22.073,-0.488,783.897,-0.808,-0.348,0.374,-11.098,-131.159,60.976,2101.073,84,1,0,0,1,0,0,0,0,1,1
2018-07-04T12:04:17.738476,0.072,-0.748,0.024,0.751840409,-84.20639939,5.854,-1.463,21.768,2.323,-0.253,-0.892,-0.193,33.841,-20.976,4.39,0,-0.087,0.048,-0.868,-7.683,-19.268,-2.744,292.824,0.278,-0.078,-0.979,9.024,5.915,-5.244,783.897,-0.833,-0.259,0.667,-10,-109.085,36.707,2101.073,1525,1,0,0,1,0,0,0,0,1,1
2018-07-04T12:04:17.738477,0.072,-0.748,0.024,0.751840409,-84.20639939,-0.244,0.976,36.22,2.323,-0.229,-0.858,-0.132,26.28,-16.28,4.695,0,-0.052,0.049,-0.951,-7.439,-12.195,-1.829,292.824,0.278,-0.078,-0.979,13.293,5.366,-6.22,783.897,-0.833,-0.259,0.667,-20.122,-78.415,4.939,2101.073,1655,1,0,0,1,0,0,0,0,1,1
2018-07-04T12:04:17.738478,-0.125,-1.069,0.091,1.080123604,-81.77005218,0.549,0,45.976,2.323,-0.292,-0.906,-0.161,4.329,-13.841,16.463,0,-0.031,0.076,-1.009,-0.976,3.354,1.098,292.824,0.252,-0.057,-0.954,17.805,2.439,-5.61,783.897,-0.826,-0.352,0.68,-7.988,-9.268,-8.659,2101.073,915,1,0,0,1,0,0,0,0,1,1
2018-07-04T12:04:17.738479,-0.125,-1.069,0.091,1.080123604,-81.77005218,5.61,-4.451,52.134,2.323,-0.292,-0.906,-0.161,-10.915,-7.805,18.11,0,-0.031,0.076,-1.009,-0.915,7.927,1.402,292.824,0.215,-0.075,-1.085,11.829,5.244,-1.89,783.897,-0.813,-0.409,0.628,-8.476,-4.268,-2.073,2101.073,628,1,0,0,1,0,0,0,0,1,1
2018-07-04T12:04:17.738480,-0.346,-1.38,0.036,1.423169702,-75.85174848,-6.098,-5.732,56.037,2.323,-0.395,-0.914,-0.216,-20.244,-1.159,15,0,-0.024,0.098,-0.965,1.89,10.183,1.524,292.824,0.215,-0.075,-1.085,-5.854,-0.976,-0.61,783.897,-0.813,-0.409,0.628,3.232,-18.293,8.902,2101.073,-1562,1,0,0,1,0,0,0,0,1,1
2018-07-04T12:04:17.738481,-0.354,-1.237,-0.054,1.287789191,-73.85497691,-9.634,-3.598,7.439,2.323,-0.395,-0.914,-0.216,-24.329,0.549,9.817,0,-0.024,0.098,-0.965,4.207,8.598,1.159,292.824,0.188,-0.047,-1.16,-8.11,-1.22,-6.524,783.897,-0.732,-0.304,0.674,4.085,-39.329,23.415,2101.073,195,1,0,0,1,0,0,0,0,1,1
2018-07-04T12:04:17.738482,-0.354,-1.237,-0.054,1.287789191,-73.85497691,-4.756,1.768,-22.866,2.323,-0.401,-0.87,-0.235,-28.415,10.488,-2.439,0,-0.006,0.111,-0.959,-0.976,7.439,0.305,292.824,0.161,-0.044,-1.059,-0.122,1.159,-8.537,783.897,-0.688,-0.29,0.755,-1.829,-43.659,19.268,2101.073,210,1,0,0,1,0,0,0,0,1,1
2018-07-04T12:04:17.738483,-0.168,-0.861,-0.022,0.877512963,-78.86713951,-24.024,4.146,-20.854,2.323,-0.355,-0.849,-0.297,-32.317,10.732,0.244,0,0.016,0.085,-0.977,-0.671,10.366,1.89,292.824,0.161,-0.044,-1.059,1.341,-8.537,-8.171,783.897,-0.688,-0.29,0.755,-2.439,-23.78,16.037,2101.073,86,1,0,0,1,0,0,0,0,1,1
2018-07-04T12:04:17.738484,-0.104,-0.863,-0.081,0.873009736,-81.31529154,-18.78,1.22,-5.244,2.323,-0.365,-0.897,-0.395,-31.098,17.5,-3.841,0,0.011,0.073,-0.971,2.073,4.024,1.89,292.824,0.199,-0.031,-0.946,-2.622,1.22,-1.585,783.897,-0.736,-0.279,0.783,-8.78,16.22,1.524,2101.073,306,1,0,0,1,0,0,0,0,1,1
2018-07-04T12:04:17.738485,-0.104,-0.863,-0.081,0.873009736,-81.31529154,-4.39,-1.89,6.89,2.323,-0.365,-0.897,-0.395,-12.012,11.159,-6.159,0,0.011,0.073,-0.971,4.146,1.585,1.402,292.824,0.23,-0.03,-1,1.341,4.512,4.329,783.897,-0.732,-0.283,0.672,-12.683,23.659,-3.659,2101.073,90,1,0,0,1,0,0,0,0,1,1
2018-07-04T12:04:17.738486,-0.134,-0.968,-0.075,0.980104586,-80.98585827,4.451,-2.134,11.341,2.323,-0.326,-0.865,-0.365,-1.159,4.939,-5.732,0,0.01,0.064,-0.947,3.11,1.159,0.976,292.824,0.23,-0.03,-1,-2.805,-12.256,4.451,783.897,-0.732,-0.283,0.672,-7.744,20.061,-8.171,2101.073,60,1,0,0,1,0,0,0,0,1,1
2018-07-04T12:04:17.738487,-0.139,-0.986,-0.019,0.99593072,-81.90205208,1.829,-3.415,11.22,2.323,-0.326,-0.865,-0.365,2.622,1.098,-5.305,0,0.01,0.064,-0.947,2.012,0,0.671,292.824,0.257,-0.008,-1.072,-2.134,7.561,0.244,783.897,-0.812,-0.331,0.691,-3.354,14.512,-4.024,2101.073,115,1,0,0,1,0,0,0,0,1,1
2018-07-04T12:04:17.738488,-0.139,-0.986,-0.019,0.99593072,-81.90205208,3.598,-5.305,13.78,2.323,-0.302,-0.856,-0.338,7.256,-1.646,-2.378,0,0.006,0.061,-0.963,0.305,-3.11,-0.183,292.824,0.271,-0.03,-1.071,3.293,-9.695,4.207,783.897,-0.812,-0.331,0.691,-6.463,20.305,-5.671,2101.073,438,1,0,0,1,0,0,0,0,1,1
2018-07-04T12:04:17.738489,-0.176,-0.866,0.012,0.883785042,-78.486092,7.378,-7.866,21.768,2.323,-0.325,-0.894,-0.339,9.146,-3.963,-1.098,0,0.004,0.074,-0.99,1.707,-4.451,-0.549,292.824,0.271,-0.03,-1.071,1.585,2.073,0.427,783.897,-0.786,-0.319,0.668,-4.939,33.11,-18.841,2101.073,-169,1,0,0,1,0,0,0,0,1,1
2018-07-04T12:04:17.738490,-0.176,-0.866,0.012,0.883785042,-78.486092,10.732,-11.28,31.463,2.323,-0.325,-0.894,-0.339,9.756,-6.037,-0.915,0,0.004,0.074,-0.99,2.439,-4.329,-0.549,0,0.23,-0.066,-1.028,1.585,17.256,0.122,292.637,-0.79,-0.357,0.601,-2.683,28.293,-15.061,2510.413,-344,1,0,0,1,0,1,0,1,1,1
2018-07-04T12:04:17.738491,-0.278,-0.905,-0.013,0.946825221,-72.90639478,9.939,-11.463,39.878,2.323,-0.334,-0.89,-0.325,13.232,-7.988,-0.305,0,0.005,0.081,-0.978,1.22,-4.817,-0.61,0,0.23,-0.066,-1.028,8.537,2.5,7.195,292.637,-0.79,-0.357,0.601,-2.561,17.988,-8.537,2510.413,-285,1,0,0,1,0,1,0,1,1,1
2018-07-04T12:04:17.738492,-0.395,-1.356,-0.059,1.413591879,-73.58874263,10.732,0.183,22.317,2.323,-0.334,-0.89,-0.325,15.305,-10.549,1.829,0,0.005,0.081,-0.978,-0.305,-3.659,-0.427,0,0.205,-0.045,-1.03,6.28,-2.256,7.256,292.637,-0.799,-0.373,0.586,-0.488,8.049,-4.085,2510.413,-420,1,0,0,1,0,1,0,1,1,1
2018-07-04T12:04:17.738493,-0.395,-1.356,-0.059,1.413591879,-73.58874263,17.988,-0.732,-12.744,2.323,-0.337,-0.865,-0.273,13.476,-9.756,3.415,0,-0.014,0.076,-0.947,-0.854,-2.012,-0.305,0,0.205,-0.045,-1.03,-1.829,-0.366,3.293,292.637,-0.799,-0.373,0.586,0.915,1.037,-0.915,2510.413,-737,1,0,0,1,0,1,0,1,1,1
2018-07-04T12:04:17.738494,-0.285,-0.873,0.083,0.922086222,-71.22078876,15.732,-3.902,-0.671,2.323,-0.343,-0.869,-0.241,11.829,-7.134,2.256,0,-0.029,0.079,-0.951,0.183,-1.22,0.305,0,0.215,-0.053,-1.032,1.22,1.341,1.341,292.637,-0.802,-0.375,0.611,1.585,-2.439,1.829,2510.413,-198,1,0,0,1,0,1,0,1,1,1
2018-07-04T12:04:17.738495,-0.285,-0.873,0.083,0.922086222,-71.22078876,0.061,0.183,-2.927,2.323,-0.343,-0.869,-0.241,10.305,-5.549,0.061,0,-0.029,0.079,-0.951,1.646,-1.829,0.122,0,0.23,-0.069,-1.042,-1.28,0.061,-1.951,292.637,-0.799,-0.354,0.618,0.793,0.183,-0.427,2510.413,-150,1,0,0,1,0,1,0,1,1,1
2018-07-04T12:04:17.738496,-0.28,-0.933,0.037,0.974811777,-73.15809436,-5.793,1.585,0,2.323,-0.345,-0.889,-0.23,4.207,0.915,-4.512,0,-0.021,0.079,-0.969,1.159,-2.073,0,0,0.23,-0.069,-1.042,2.866,-2.5,-2.256,292.637,-0.799,-0.354,0.618,0.305,1.463,-1.646,2510.413,52,1,0,0,1,0,1,0,1,1,1
2018-07-04T12:04:17.738497,-0.29,-1.073,-0.014,1.111586704,-74.85918743,-3.232,3.171,-5.915,2.323,-0.325,-0.881,-0.233,0.793,-2.195,-1.28,0,-0.003,0.067,-0.97,-0.61,2.134,0.488,0,0.245,-0.063,-1.041,0.671,-0.915,-1.646,292.637,-0.827,-0.355,0.625,-1.037,2.683,-3.841,2510.413,203,1,0,0,1,0,1,0,1,1,1
2018-07-04T12:04:17.738498,-0.29,-1.073,-0.014,1.111586704,-74.85918743,-1.098,3.78,-7.317,2.323,-0.325,-0.881,-0.233,-8.293,1.037,-0.793,0,-0.003,0.067,-0.97,1.524,3.537,1.037,0,0.248,-0.034,-1.052,-1.463,-2.073,-3.537,292.637,-0.827,-0.355,0.625,-2.683,0.549,-10.061,2510.413,215,1,0,0,1,0,1,0,1,1,1
2018-07-04T12:04:17.738499,-0.282,-1.021,0.024,1.059500354,-74.50671848,5.549,-1.524,-7.805,2.323,-0.334,-0.89,-0.28,-12.134,6.098,-3.902,0,-0.009,0.067,-0.954,5.183,3.232,0.854,0,0.245,-0.055,-1.071,-7.195,-3.293,-12.256,292.637,-0.76,-0.375,0.66,6.768,-13.72,-6.037,2510.413,487,1,0,0,1,0,1,0,1,1,1
2018-07-04T12:04:17.738500,-0.252,-0.911,0.04,0.946057609,-74.35338803,7.866,-1.89,-12.317,2.323,-0.323,-0.887,-0.289,-10.549,7.378,-5.793,0,-0.004,0.071,-0.966,2.805,2.134,0.427,0,0.245,-0.055,-1.071,-16.829,-5.915,-6.159,292.637,-0.76,-0.375,0.66,20.122,-25.488,3.72,2510.413,724,1,0,0,1,0,1,0,1,1,1
2018-07-04T12:04:17.738501,-0.241,-1.04,0.044,1.068464787,-76.74497972,3.78,-0.732,-5.976,2.323,-0.324,-0.892,-0.308,-6.159,1.89,-1.768,0,-0.004,0.071,-0.966,-0.366,1.707,0,0,0.223,-0.029,-1.046,-12.744,-1.951,-3.537,292.637,-0.954,-0.427,1.138,33.354,-37.927,5.305,2510.413,-30,1,0,0,1,0,1,0,1,1,1
2018-07-04T12:04:17.738502,-0.241,-1.04,0.044,1.068464787,-76.74497972,22.012,-8.598,7.317,2.323,-0.324,-0.892,-0.308,-6.098,1.037,0.061,0,-0.004,0.068,-0.955,3.598,-1.402,0.244,0,0.214,0.056,-1.069,-26.768,-9.573,-7.683,292.637,-0.954,-0.427,1.138,23.598,-47.439,12.622,2510.413,117,1,0,0,1,0,1,0,1,1,1
2018-07-04T12:04:17.738503,-0.253,-1.017,0.051,1.049237342,-75.76037179,45.488,-11.768,2.5,2.323,-0.324,-0.904,-0.306,7.073,-2.378,-1.585,0,-0.013,0.055,-0.972,5.793,-5.854,0.122,0,0.214,0.056,-1.069,-16.037,-21.159,-22.866,292.637,-0.781,-0.317,0.42,-53.72,-118.902,23.049,2510.413,28,1,0,0,1,0,1,0,1,1,1
2018-07-04T12:04:17.738504,-0.253,-1.017,0.051,1.049237342,-75.76037179,44.024,-7.5,-12.073,2.323,-0.324,-0.904,-0.306,15.183,-3.78,-3.78,0,-0.013,0.055,-0.972,2.012,-1.22,-0.427,0,0.235,-0.006,-1.04,-22.134,-8.354,-37.622,292.637,-0.12,-0.229,0.07,169.695,-37.439,17.317,2510.413,135,1,0,0,1,0,1,0,1,1,1
2018-07-04T12:04:17.738505,-0.231,-0.781,0.182,0.834533403,-69.3662782,8.171,1.22,-20.793,2.323,-0.287,-0.861,-0.221,5.244,-2.012,-0.488,0,0.011,0.08,-1.019,-2.866,6.829,0.122,0,0.235,-0.006,-1.04,-10.976,22.866,-18.537,292.637,-0.12,-0.229,0.07,61.829,40.671,9.695,2510.413,19,1,0,0,1,0,1,0,1,1,1
2018-07-04T12:04:17.738506,-0.23,-0.978,0.078,1.007704322,-76.05387613,-42.439,6.768,-4.146,2.323,-0.347,-0.899,-0.304,-24.817,9.451,4.695,0,0.003,0.08,-0.971,-4.634,10.427,0.976,0,0.135,-0.017,-0.921,-8.11,2.378,7.134,292.637,-0.813,-0.194,1.219,38.415,17.317,0.366,2510.413,-134,1,0,0,1,0,1,0,1,1,1
2018-07-04T12:04:17.738507,-0.23,-0.978,0.078,1.007704322,-76.05387613,-16.037,0.732,7.317,2.323,-0.347,-0.899,-0.304,-26.707,11.951,1.341,0,0.003,0.08,-0.971,3.476,3.232,1.89,0,0.139,0.156,-0.975,14.207,-7.378,14.817,292.637,-0.67,-0.184,0.995,-2.073,-45.976,-0.488,2510.413,-120,1,0,0,1,0,1,0,1,1,1
2018-07-04T12:04:17.738508,-0.248,-1.043,0.03,1.072498485,-76.53086771,15.183,-2.744,6.951,2.323,-0.343,-0.9,-0.362,-13.171,5.976,-0.732,0,0.001,0.055,-0.923,5.366,0.366,1.159,0,0.139,0.156,-0.975,11.28,-8.963,3.11,292.637,-0.67,-0.184,0.995,-11.951,-25.732,-5.366,2510.413,-145,1,0,0,1,0,1,0,1,1,1
2018-07-04T12:04:17.738509,-0.248,-1.043,0.03,1.072498485,-76.53086771,19.634,-2.805,-0.366,2.323,-0.289,-0.838,-0.299,2.317,0.549,-4.268,0,0.001,0.055,-0.923,3.841,-0.976,0.488,0,0.199,0.043,-1.092,1.037,-12.378,4.756,292.637,-0.518,-0.191,0.869,10.366,-7.317,-1.098,2510.413,117,1,0,0,1,0,1,0,1,1,1
2018-07-04T12:04:17.738510,-0.2,-0.913,0.099,0.939877652,-76.26470293,-1.89,1.585,-8.72,2.323,-0.289,-0.838,-0.299,-4.512,3.354,-4.512,0,0.023,0.064,-0.987,0.976,-0.183,0.305,0,0.199,0.043,-1.092,12.378,-21.646,9.268,292.637,-0.518,-0.191,0.869,14.146,2.866,-4.268,2510.413,-24,1,0,0,1,0,1,0,1,1,1
2018-07-04T12:04:17.738511,-0.195,-0.941,0.059,0.962801641,-77.78378275,-18.841,4.024,0,2.323,-0.305,-0.892,-0.351,-11.89,6.28,-3.659,0,0.029,0.072,-1.025,-1.524,2.5,0.488,0,0.216,0.004,-1.092,12.5,23.78,3.963,292.637,-0.628,-0.181,0.969,2.195,13.171,-9.268,2510.413,-45,1,0,0,1,0,1,0,1,1,1
2018-07-04T12:04:17.738512,-0.195,-0.941,0.059,0.962801641,-77.78378275,-6.524,0.488,10.793,2.323,-0.305,-0.892,-0.351,-9.024,3.476,-0.915,0,0.029,0.072,-1.025,-1.037,1.037,0.183,0,0.165,0.022,-1.048,19.451,9.39,11.098,292.637,-0.628,-0.181,0.969,-15.549,19.512,-12.988,2510.413,-81,1,0,0,1,0,1,0,1,1,1
2018-07-04T12:04:17.738513,-0.241,-0.997,0.034,1.02627774,-76.2813347,4.878,-2.256,13.476,2.323,-0.324,-0.916,-0.393,5.549,-4.756,2.012,0,0.017,0.065,-0.945,0,-0.915,-0.183,0,0.165,0.022,-1.048,16.159,-5.244,9.878,292.637,-0.614,-0.253,0.868,-5.61,12.561,-5.183,2510.413,-178,1,0,0,1,0,1,0,1,1,1
2018-07-04T12:04:17.738514,-0.241,-0.997,0.034,1.02627774,-76.2813347,3.232,-2.256,8.598,2.323,-0.295,-0.841,-0.314,12.317,-8.963,2.134,0,0.017,0.065,-0.945,-0.061,-1.89,-0.305,0,0.187,-0.022,-1.072,5.976,3.171,3.415,292.637,-0.602,-0.234,0.842,-3.659,12.073,-3.171,2510.413,-59,1,0,0,1,0,1,0,1,1,1
2018-07-04T12:04:17.738515,-0.242,-1.011,0.044,1.04049075,-76.32609469,-2.988,2.073,1.098,2.323,-0.295,-0.841,-0.314,10.427,-9.146,2.866,0,0,0.064,-0.928,-2.012,-1.341,-0.183,0,0.165,-0.032,-1.04,1.159,8.11,0.366,292.637,-0.602,-0.234,0.842,-9.878,15.183,-8.902,2510.413,145,1,0,0,1,0,1,0,1,1,1
2018-07-04T12:04:17.738516,-0.25,-1.026,0.078,1.058895651,-75.6810535,1.89,0.793,3.415,2.323,-0.31,-0.865,-0.29,5.366,-5.915,2.744,0,-0.007,0.071,-0.975,-0.671,-2.439,-0.122,0,0.165,-0.032,-1.04,3.963,-17.195,5.976,292.637,-0.632,-0.273,0.835,-13.659,17.927,-12.866,2510.413,132,1,0,0,1,0,1,0,1,1,1
2018-07-04T12:04:17.738517,-0.25,-1.026,0.078,1.058895651,-75.6810535,7.683,-0.183,3.415,2.323,-0.31,-0.865,-0.29,3.476,-3.415,1.159,0,-0.007,0.071,-0.975,0.915,-4.024,-0.244,0,0.182,-0.045,-1.018,11.341,-3.537,0.183,292.637,-0.632,-0.273,0.835,-9.451,17.561,-11.098,2510.413,185,1,0,0,1,0,1,0,1,1,1
2018-07-04T12:04:17.738518,-0.253,-0.974,0.087,1.010076235,-74.64066821,6.341,-0.244,0,2.323,-0.33,-0.909,-0.308,9.39,-6.22,-0.366,0,0.004,0.074,-0.981,1.646,-3.902,-0.183,0,0.182,-0.045,-1.018,1.646,11.28,2.744,292.637,-0.653,-0.301,0.814,-6.159,3.963,-3.72,2510.413,177,1,0,0,1,0,1,0,1,1,1
2018-07-04T12:04:17.738519,-0.232,-0.953,0.05,0.98210641,-76.01600883,-7.805,2.439,-3.659,2.323,-0.317,-0.871,-0.276,8.049,-6.951,0.793,0,0.005,0.07,-0.958,1.28,-0.366,0.427,0,0.186,-0.039,-1.059,3.72,8.598,-2.317,292.637,-0.646,-0.285,0.828,4.878,-1.646,3.902,2510.413,197,1,0,0,1,0,1,0,1,1,1
2018-07-04T12:04:17.738520,-0.232,-0.953,0.05,0.98210641,-76.01600883,-6.402,2.866,-2.134,2.323,-0.317,-0.871,-0.276,1.768,-3.78,0.793,0,0.005,0.07,-0.958,1.098,1.951,0.61,0,0.186,-0.038,-1.069,3.78,5.061,-1.951,292.637,-0.646,-0.285,0.828,5.244,-3.354,3.293,2510.413,215,1,0,0,1,0,1,0,1,1,1
2018-07-04T12:04:17.738521,-0.236,-0.98,0.053,1.009408242,-76.13567215,-1.402,2.805,0,2.323,-0.318,-0.867,-0.279,-7.866,2.012,-0.488,0,-0.002,0.07,-0.964,0.793,2.622,0.732,0,0.186,-0.038,-1.069,-6.829,3.354,-5,292.637,-0.634,-0.272,0.837,2.5,1.22,2.439,2510.413,-5,1,0,0,1,0,1,0,1,1,1
2018-07-04T12:04:17.738522,-0.236,-0.98,0.053,1.009408242,-76.13567215,3.232,2.5,1.28,2.323,-0.323,-0.888,-0.308,-11.037,3.171,-0.427,0,-0.002,0.07,-0.964,0.366,2.195,0.61,0,0.188,-0.042,-1.042,-3.902,9.939,-4.207,292.637,-0.636,-0.265,0.824,0.305,3.476,1.037,2510.413,17,1,0,0,1,0,1,0,1,1,1
2018-07-04T12:04:17.738523,-0.251,-0.993,0.076,1.027047224,-75.20583713,1.524,2.073,0.061,2.323,-0.323,-0.888,-0.308,-7.988,1.707,0,0,0.004,0.068,-0.969,0.183,1.829,0.549,0,0.188,-0.042,-1.042,2.622,-1.22,0.183,292.637,-0.636,-0.265,0.824,-0.793,5,0.427,2510.413,-125,1,0,0,1,0,1,0,1,1,1
2018-07-04T12:04:17.738524,-0.243,-0.988,0.049,1.018623581,-75.91512999,-4.085,1.341,-2.195,2.323,-0.324,-0.881,-0.323,-5.976,0.549,0.366,0,0.012,0.067,-0.962,0.671,0.793,0.488,0,0.198,-0.035,-1.034,0.793,2.744,0.854,292.637,-0.643,-0.262,0.823,-1.829,6.098,-1.037,2510.413,-401,1,0,0,1,0,1,0,1,1,1
2018-07-04T12:04:17.738525,-0.243,-0.988,0.049,1.018623581,-75.91512999,-3.232,1.159,-2.317,2.323,-0.324,-0.881,-0.323,-4.268,-0.122,0.305,0,0.012,0.067,-0.962,1.829,0.488,0.488,0,0.201,-0.024,-1.042,0,-1.646,1.524,292.637,-0.643,-0.262,0.823,-3.659,6.951,-2.073,2510.413,217,1,0,0,1,0,1,0,1,1,1
2018-07-04T12:04:17.738526,-0.227,-0.963,0.051,0.990706314,-76.41774439,-2.256,0.671,-0.976,2.323,-0.32,-0.881,-0.325,-1.524,0.183,-1.463,0,0.011,0.067,-0.973,1.159,-0.305,0.244,0,0.192,-0.015,-1.043,-6.037,13.476,-3.293,292.637,-0.662,-0.282,0.824,-5.976,13.902,-3.841,2510.413,474,1,0,0,1,0,1,0,1,1,1
2018-07-04T12:04:17.738527,-0.24,-0.975,0.054,1.005555071,-75.83938094,-0.488,0.427,0.61,2.323,-0.32,-0.881,-0.325,0.61,-1.585,-0.122,0,0.006,0.07,-0.971,0.549,-0.183,0.244,0,0.192,-0.015,-1.043,2.439,-9.573,5,292.637,-0.667,-0.286,0.789,-2.683,15,-2.866,2510.413,19,1,0,0,1,0,1,0,1,1,1
2018-07-04T12:04:17.738528,-0.24,-0.975,0.054,1.005555071,-75.83938094,1.098,0.549,1.28,2.323,-0.325,-0.879,-0.316,1.524,-2.683,0.976,0,0.006,0.07,-0.971,0.305,0,0.305,0,0.207,-0.024,-1.055,0,-0.793,2.439,292.637,-0.667,-0.286,0.789,-2.927,12.256,-3.598,2510.413,-146,1,0,0,1,0,1,0,1,1,1
2018-07-04T12:04:17.738529,-0.241,-0.996,0.059,1.026439477,-76.01157888,1.159,0.549,0.732,2.323,-0.325,-0.879,-0.316,2.5,-2.439,0.366,0,0.004,0.068,-0.966,0.671,-0.61,0.183,0,0.207,-0.024,-1.055,2.866,9.451,1.28,292.637,-0.685,-0.298,0.778,0.915,2.256,1.159,2510.413,-78,1,0,0,1,0,1,0,1,1,1
2018-07-04T12:04:17.738530,-0.241,-0.996,0.059,1.026439477,-76.01157888,0.854,0.488,-0.244,2.323,-0.324,-0.877,-0.31,3.72,-2.744,-0.122,0,0.004,0.065,-0.964,0.305,-1.098,0.061,0,0.208,-0.028,-1.036,2.927,4.207,0.732,327.124,-0.679,-0.293,0.784,-0.793,-1.402,1.098,2555.043,98,1,0,0,1,0,1,0,1,1,1
2018-07-04T12:04:17.738531,-0.231,-0.985,0.06,1.01350185,-76.37975419,0.488,0.183,-0.976,2.323,-0.324,-0.877,-0.31,2.927,-2.744,0.122,0,0.004,0.065,-0.964,0.061,-0.427,0.122,0,0.216,-0.032,-1.035,4.695,-2.317,2.134,327.124,-0.679,-0.293,0.784,0.854,-1.768,2.5,2555.043,228,1,0,0,1,0,1,0,1,1,1
2018-07-04T12:04:17.738532,-0.228,-0.97,0.06,0.998240452,-76.3389186,0.671,0.61,-1.463,2.323,-0.319,-0.874,-0.301,2.195,-2.073,-0.61,0,0,0.067,-0.965,-0.122,-0.183,0.244,0,0.216,-0.032,-1.035,0.671,-2.378,1.829,327.124,-0.674,-0.29,0.792,0.122,-0.61,1.524,2555.043,289,1,0,0,1,0,1,0,1,1,1
2018-07-04T12:04:17.738533,-0.228,-0.97,0.06,0.998240452,-76.3389186,1.28,0.976,-0.427,2.323,-0.321,-0.88,-0.298,0.793,-1.159,-0.549,0,0,0.067,-0.965,0.061,-0.244,0.244,0,0.209,-0.043,-1.042,1.524,3.841,-0.061,327.124,-0.674,-0.29,0.792,-0.549,1.098,-0.366,2555.043,-373,1,0,0,1,0,1,0,1,1,1
2018-07-04T12:04:17.738534,-0.238,-0.979,0.066,1.00967371,-75.84089131,0.793,0.793,-0.122,2.323,-0.321,-0.88,-0.298,-0.305,-0.854,-0.366,0,0.002,0.072,-0.968,0,0.244,0.244,0,0.209,-0.043,-1.042,4.207,-3.72,1.28,327.124,-0.678,-0.289,0.791,1.22,2.317,-0.427,2555.043,-198,1,0,0,1,0,1,0,1,1,1
2018-07-04T12:04:17.738535,-0.238,-0.979,0.066,1.00967371,-75.84089131,0.793,0.488,-0.427,2.323,-0.327,-0.882,-0.302,-1.463,-0.549,-0.488,0,0.002,0.072,-0.968,0.061,0.183,0.244,0,0.208,-0.039,-1.046,-2.378,0.732,0.488,327.124,-0.679,-0.291,0.788,0.854,0.244,0.305,2555.043,412,1,0,0,1,0,1,0,1,1,1
2018-07-04T12:04:17.738536,-0.236,-0.98,0.063,1.009982673,-76.00425171,0,0.671,-0.549,2.323,-0.327,-0.882,-0.302,-0.976,-0.61,-0.366,0,0.007,0.072,-0.971,0.244,0.61,0.305,0,0.208,-0.031,-1.044,0.61,-3.659,0.854,327.124,-0.679,-0.291,0.788,3.354,-0.122,1.829,2555.043,252,1,0,0,1,0,1,0,1,1,1
2018-07-04T12:04:17.738537,-0.236,-0.98,0.063,1.009982673,-76.00425171,-2.256,0.976,-0.976,2.323,-0.325,-0.878,-0.306,-2.439,0.183,-0.61,0,0.007,0.071,-0.968,0.366,0.976,0.427,0,0.208,-0.031,-1.044,-2.683,3.72,-0.549,327.124,-0.678,-0.284,0.794,2.012,-0.549,1.098,2555.043,305,1,0,0,1,0,1,0,1,1,1
2018-07-04T12:04:17.738538,-0.229,-0.987,0.057,1.014819688,-76.5532767,-0.732,0.549,-0.854,2.323,-0.323,-0.88,-0.311,-2.012,0.244,-0.671,0,0.007,0.071,-0.968,0.427,0.976,0.427,0,0.209,-0.036,-1.039,2.134,-4.085,1.463,327.124,-0.678,-0.284,0.794,0.549,0.732,0.488,2555.043,-50,1,0,0,1,0,1,0,1,1,1
2018-07-04T12:04:17.738539,-0.227,-0.979,0.062,1.00688331,-76.48464111,0.854,0.732,-1.159,2.323,-0.323,-0.88,-0.311,-2.073,0.061,-0.61,0,0.004,0.07,-0.965,0.244,0.366,0.305,0,0.209,-0.036,-1.039,-5.061,3.902,-0.549,327.124,-0.675,-0.283,0.787,0.549,1.585,0.488,2555.043,-130,1,0,0,1,0,1,0,1,1,1
2018-07-04T12:04:17.738540,-0.227,-0.979,0.062,1.00688331,-76.48464111,-0.183,0.549,-1.098,2.323,-0.322,-0.88,-0.31,-0.976,-0.427,-0.488,0,0.004,0.07,-0.965,0.305,0.122,0.305,0,0.21,-0.034,-1.04,0.976,-1.098,0.854,327.124,-0.679,-0.285,0.785,-0.305,1.22,-0.061,2555.043,-171,1,0,0,1,0,1,0,1,1,1
2018-07-04T12:04:17.738541,-0.228,-0.978,0.063,1.006199284,-76.40327848,-0.122,0.793,-0.488,2.323,-0.322,-0.88,-0.31,0.61,-1.159,-0.244,0,0.007,0.071,-0.967,0.183,0.244,0.305,0,0.21,-0.034,-1.04,-1.159,-0.976,1.098,327.124,-0.679,-0.285,0.785,0.549,0.854,0.061,2555.043,-167,1,0,0,1,0,1,0,1,1,1
2018-07-04T12:04:17.738542,-0.23,-0.978,0.073,1.007329638,-76.13995632,0.183,0.305,-0.61,2.323,-0.321,-0.879,-0.306,-1.768,-0.366,-0.488,0,0.005,0.072,-0.969,0.366,0.305,0.366,0,0.209,-0.027,-1.04,0.854,-3.598,2.317,327.124,-0.68,-0.286,0.789,0.732,0.427,0,2555.043,118,1,0,0,1,0,1,0,1,1,1
2018-07-04T12:04:17.738543,-0.23,-0.978,0.073,1.007329638,-76.13995632,-1.037,0.183,-0.854,2.323,-0.322,-0.883,-0.31,-0.549,-0.61,-0.488,0,0.005,0.072,-0.969,0.122,0.183,0.183,0,0.211,-0.029,-1.045,1.646,3.659,-0.244,327.124,-0.68,-0.286,0.789,0,-0.305,-0.122,2555.043,89,1,0,0,1,0,1,0,1,1,1
2018-07-04T12:04:17.738544,-0.224,-0.982,0.05,1.008464179,-76.84499741,-1.89,0.366,-0.671,2.323,-0.322,-0.883,-0.31,0.61,-1.098,-0.366,0,0.008,0.073,-0.967,-0.122,-0.183,0.122,0,0.211,-0.029,-1.045,-2.256,-0.732,0.915,327.124,-0.676,-0.284,0.791,0.549,0.549,0.305,2555.043,187,1,0,0,1,0,1,0,1,1,1
2018-07-04T12:04:17.738545,-0.224,-0.982,0.05,1.008464179,-76.84499741,-1.768,0.793,-0.366,2.323,-0.32,-0.875,-0.306,0.549,-1.402,-0.183,0,0.008,0.073,-0.967,0,0.122,0.183,0,0.206,-0.036,-1.042,0.183,-1.402,0.549,327.124,-0.682,-0.286,0.792,0.061,1.524,-0.244,2555.043,205,1,0,0,1,0,1,0,1,1,1
2018-07-04T12:04:17.738546,-0.226,-0.987,0.052,1.013878198,-76.7776409,-0.61,1.28,-0.244,2.323,-0.321,-0.878,-0.31,-2.988,0.244,-0.671,0,0.008,0.073,-0.966,0.976,0.671,0.488,0,0.206,-0.032,-1.042,0.244,-0.61,0.671,327.124,-0.682,-0.286,0.792,-0.549,1.646,-0.427,2555.043,105,1,0,0,1,0,1,0,1,1,1
2018-07-04T12:04:17.738547,-0.226,-0.987,0.052,1.013878198,-76.7776409,1.098,1.28,-0.305,2.323,-0.321,-0.878,-0.31,-2.927,0.488,-0.793,0,0.005,0.073,-0.968,0.549,0.366,0.366,0,0.206,-0.032,-1.042,2.866,-0.061,0.671,327.124,-0.679,-0.291,0.782,-0.61,1.037,0.244,2555.043,72,1,0,0,1,0,1,0,1,1,1
2018-07-04T12:04:17.738548,-0.23,-0.973,0.078,1.002852432,-75.98502839,-0.122,0.671,-0.793,2.323,-0.321,-0.883,-0.313,-1.098,-0.244,-0.549,0,0.005,0.073,-0.968,0.305,0,0.244,0,0.206,-0.03,-1.042,-1.402,-1.28,1.707,327.124,-0.679,-0.291,0.782,0.305,0.305,3.232,2555.043,-85,1,0,0,1,0,1,0,1,1,1
2018-07-04T12:04:17.738549,-0.228,-0.985,0.06,1.012822294,-76.53932946,-2.195,0.61,-1.22,2.323,-0.321,-0.883,-0.313,0.732,-1.463,-0.061,0,0.006,0.074,-0.967,0.244,0.061,0.244,0,0.206,-0.03,-1.042,2.195,2.5,4.512,327.124,-0.679,-0.281,0.786,0.305,0.122,4.695,2555.043,-14,1,0,0,1,0,1,0,1,1,1
2018-07-04T12:04:17.738550,-0.228,-0.985,0.06,1.012822294,-76.53932946,-1.463,1.463,-1.524,2.323,-0.321,-0.878,-0.307,0.122,-1.22,-0.122,0,0.006,0.074,-0.967,0.732,0.122,0.427,0,0.201,-0.053,-1.046,3.598,-4.268,7.988,327.124,-0.681,-0.274,0.787,-0.427,0.183,3.476,2555.043,25,1,0,0,1,0,1,0,1,1,1
2018-07-04T12:04:17.738551,-0.221,-0.991,0.058,1.016998525,-77.01681092,-0.305,1.402,-1.037,2.323,-0.32,-0.878,-0.312,-0.854,-0.183,-0.793,0,0.008,0.073,-0.965,0.732,0.549,0.549,0,0.201,-0.026,-1.044,-0.488,-2.622,1.524,327.124,-0.681,-0.274,0.787,0,0.488,0.061,2555.043,-56,1,0,0,1,0,1,0,1,1,1
2018-07-04T12:04:17.738552,-0.221,-0.991,0.058,1.016998525,-77.01681092,-0.488,0.61,-1.159,2.323,-0.32,-0.878,-0.312,-0.488,0.183,-1.341,0,0.01,0.071,-0.97,0.244,-0.061,0.244,0,0.201,-0.026,-1.044,-0.671,1.159,-0.488,327.124,-0.687,-0.282,0.796,-2.256,0.122,0.427,2555.043,12,1,0,0,1,0,1,0,1,1,1
2018-07-04T12:04:17.738553,-0.214,-0.974,0.061,0.999096091,-77.13083587,-0.976,0.671,-1.28,2.323,-0.316,-0.88,-0.314,-0.854,-0.366,-0.915,0,0.01,0.071,-0.97,0.244,0,0.244,0,0.2,-0.039,-1.041,-0.793,-2.744,-0.122,327.124,-0.687,-0.282,0.796,-5.854,1.28,1.951,2555.043,135,1,0,0,1,0,1,0,1,1,1
2018-07-04T12:04:17.738554,-0.219,-0.975,0.058,1.000974525,-76.91892124,-0.549,0.976,0.305,2.323,-0.317,-0.879,-0.31,-1.037,-0.976,-0.183,0,0.006,0.073,-0.97,0.183,0.488,0.305,0,0.196,-0.043,-1.047,-1.037,0.732,-0.61,327.124,-0.683,-0.291,0.78,-1.768,3.72,-0.183,2555.043,100,1,0,0,1,0,1,0,1,1,1
2018-07-04T12:04:17.738555,-0.229,-0.991,0.065,1.019189384,-76.49299409,0.427,0.915,0.854,2.323,-0.317,-0.879,-0.31,-1.28,-1.037,0.122,0,0.003,0.076,-0.963,0.366,0.671,0.366,0,0.196,-0.043,-1.047,-1.951,-0.366,1.585,327.124,-0.688,-0.294,0.779,0.427,3.415,-0.671,2555.043,-14,1,0,0,1,0,1,0,1,1,1
2018-07-04T12:04:17.738556,-0.229,-0.991,0.065,1.019189384,-76.49299409,-0.549,0.671,-0.305,2.323,-0.319,-0.879,-0.31,-1.585,-0.671,0,0,0.003,0.076,-0.963,0.61,0.305,0.366,0,0.191,-0.04,-1.049,1.463,0.183,1.524,327.124,-0.688,-0.294,0.779,1.159,2.134,0.976,2555.043,38,1,0,0,1,0,1,0,1,1,1
2018-07-04T12:04:17.738557,-0.218,-0.985,0.056,1.010388539,-77.12859683,-0.976,0.61,-1.037,2.323,-0.317,-0.878,-0.315,-1.402,-0.061,-0.793,0,0.006,0.075,-0.964,0.549,0,0.305,0,0.196,-0.037,-1.042,1.463,0.122,0.549,327.124,-0.689,-0.283,0.775,0.671,1.037,0.549,2555.043,-43,1,0,0,1,0,1,0,1,1,1
2018-07-04T12:04:17.738558,-0.218,-0.985,0.056,1.010388539,-77.12859683,-0.854,0.732,-0.976,2.323,-0.317,-0.878,-0.315,-1.22,-0.061,-0.854,0,0.006,0.075,-0.964,0.488,-0.122,0.244,0,0.196,-0.037,-1.042,-1.402,2.378,-0.366,327.124,-0.694,-0.283,0.777,0.915,0.488,0,2555.043,121,1,0,0,1,0,1,0,1,1,1
2018-07-04T12:04:17.738559,-0.211,-0.977,0.055,1.001036962,-77.41870801,-1.037,0.732,-0.732,2.323,-0.315,-0.879,-0.318,-0.732,-0.122,-0.976,0,0.011,0.073,-0.972,0.854,0.061,0.305,0,0.203,-0.034,-1.039,0.122,0.366,0.244,327.124,-0.694,-0.283,0.777,0.549,-0.305,0.305,2555.043,363,1,0,0,1,0,1,0,1,1,1
2018-07-04T12:04:17.738560,-0.218,-0.979,0.061,1.004831329,-76.98035294,-0.915,0.61,0.427,2.323,-0.315,-0.879,-0.318,-1.159,-0.305,-0.61,0,0.009,0.073,-0.969,1.098,0.366,0.427,0,0.203,-0.034,-1.039,0.061,2.256,0,327.124,-0.69,-0.287,0.781,1.22,-1.037,1.098,2555.043,213,1,0,0,1,0,1,0,1,1,1
2018-07-04T12:04:17.738561,-0.218,-0.979,0.061,1.004831329,-76.98035294,-0.732,0.488,0.366,2.323,-0.314,-0.88,-0.317,-0.915,-0.671,-0.427,0,0.009,0.073,-0.969,1.037,0.061,0.305,0,0.206,-0.031,-1.045,-0.732,3.659,-1.22,327.124,-0.69,-0.287,0.781,2.134,-0.61,1.646,2555.043,-211,1,0,0,1,0,1,0,1,1,1
2018-07-04T12:04:17.738562,-0.22,-0.983,0.056,1.008873134,-76.99601656,-0.305,0.427,0.244,2.323,-0.314,-0.88,-0.317,-0.305,-1.037,-0.244,0,0.005,0.074,-0.965,0.732,-0.061,0.305,0,0.206,-0.031,-1.045,-0.976,1.951,-0.671,327.124,-0.683,-0.271,0.777,1.402,-0.488,0.854,2555.043,-419,1,0,0,1,0,1,0,1,1,1
2018-07-04T12:04:17.738563,-0.22,-0.983,0.056,1.008873134,-76.99601656,-0.305,0.549,0.061,2.323,-0.316,-0.878,-0.314,0.549,-1.829,0.244,0,0.005,0.074,-0.965,0.488,-0.244,0.305,0,0.203,-0.04,-1.044,1.037,0.671,-0.366,327.124,-0.683,-0.271,0.777,-1.707,0.122,-2.561,2555.043,-132,1,0,0,1,0,1,0,1,1,1
2018-07-04T12:04:17.738564,-1.021,0.14,-0.083,1.03389071,7.782376907,-1.098,1.402,-5.244,0,-0.983,0.271,0.074,2.988,-5.183,4.085,0,0.114,0.91,0.355,-2.012,0,-0.061,464.778,-0.646,0.107,-0.844,0.61,2.073,-2.988,1115.889,-1.006,-0.269,0.151,-1.707,-1.098,4.756,1209.362,-292,1,1,1,1.732,1,0,0,1,1,1
2018-07-04T12:04:17.738565,-1.021,0.14,-0.083,1.03389071,7.782376907,-0.854,1.098,-3.78,0,-0.976,0.273,0.077,0.671,-3.293,3.049,0,0.114,0.91,0.355,-2.012,0,-0.061,464.778,-0.642,0.1,-0.841,2.988,-2.988,0.976,1115.889,-0.996,-0.283,0.121,-0.793,-2.622,6.341,1209.362,-282,1,1,1,1.732,1,0,0,1,1,1
2018-07-04T12:04:17.738566,-1.021,0.138,-0.083,1.033621788,7.67253384,-0.732,0.427,-2.5,0,-0.976,0.273,0.077,-0.671,-1.402,1.402,0,0.108,0.903,0.35,-0.427,-0.671,0.854,464.778,-0.642,0.1,-0.841,-0.061,2.622,0.915,1115.889,-0.996,-0.283,0.121,0.244,-4.939,8.659,1209.362,-40,1,1,1,1.732,1,0,0,1,1,1
2018-07-04T12:04:17.738567,-1.02,0.139,-0.08,1.032531355,7.736682131,-1.646,-0.122,-1.768,0,-0.981,0.258,0.074,-0.793,0.549,-1.098,0,0.112,0.908,0.337,-0.244,-1.159,0.488,464.778,-0.657,0.1,-0.832,2.134,-5.976,-2.012,1115.889,-0.979,-0.283,0.113,-9.573,-7.561,9.268,1209.362,-109,1,1,1,1.732,1,0,0,1,1,1
2018-07-04T12:04:17.738568,-1.02,0.139,-0.08,1.032531355,7.736682131,-2.927,-0.549,-1.098,0,-0.983,0.253,0.074,-0.549,1.28,-1.829,0,0.112,0.908,0.337,0.061,-1.585,0.122,464.778,-0.659,0.07,-0.819,2.805,-5.183,3.354,1115.889,-0.954,-0.295,0.103,-13.841,-6.585,7.5,1209.362,167,1,1,1,1.732,1,0,0,1,1,1
2018-07-04T12:04:17.738569,-1.025,0.129,-0.083,1.036414492,7.150010039,-8.78,0.122,1.22,0,-0.983,0.253,0.074,-1.159,2.683,-2.622,0,0.114,0.896,0.325,0.244,-2.378,-0.305,464.778,-0.659,0.07,-0.819,13.659,-18.841,13.963,1115.889,-0.954,-0.295,0.103,-14.573,-3.659,6.463,1209.362,251,1,1,1,1.732,1,0,0,1,1,1
2018-07-04T12:04:17.738570,-1.025,0.129,-0.083,1.036414492,7.150010039,-17.439,-1.646,7.744,0,-0.985,0.249,0.062,-1.341,3.232,-2.134,0,0.104,0.91,0.326,9.634,-2.805,-0.305,464.778,-0.655,0.004,-0.792,27.561,-19.329,27.927,1115.889,-0.961,-0.299,0.062,-17.073,0.854,6.22,1209.362,97,1,1,1,1.732,1,0,0,1,1,1
2018-07-04T12:04:17.738571,-1.021,0.157,-0.072,1.035506639,8.720622753,-16.951,-4.878,9.634,0,-0.993,0.225,0.062,2.134,5.244,-9.024,0,0.091,0.943,0.328,8.293,-6.646,1.159,464.778,-0.736,0.047,-0.735,63.841,12.439,46.22,1115.889,-0.971,-0.328,0.037,-19.634,14.39,6.22,1209.362,240,1,1,1,1.732,1,0,0,1,1,1
2018-07-04T12:04:17.738572,-1.018,0.178,-0.055,1.034907242,9.903896316,-8.537,2.439,-6.646,0,-1.006,0.257,0.06,5.793,2.805,-5.793,0,0.091,0.943,0.328,8.841,-11.037,-0.427,464.778,-0.769,0.072,-0.721,57.927,8.11,40.244,1115.889,-0.982,-0.315,0.079,15,28.415,10.854,1209.362,147,1,1,1,1.732,1,0,0,1,1,1
2018-07-04T12:04:17.738573,-1.021,0.15,-0.063,1.033881038,8.342166074,-7.866,2.683,-5.732,0,-1.006,0.257,0.06,11.341,-7.012,1.646,0,0.093,0.91,0.357,4.573,-10.61,-3.659,464.778,-0.769,0.072,-0.721,50,-17.5,52.378,1115.889,-0.982,-0.315,0.079,21.707,33.902,13.11,1209.362,81,1,1,1,1.732,1,0,0,1,1,1
2018-07-04T12:04:17.738574,-1.021,0.15,-0.063,1.033881038,8.342166074,-3.72,2.439,-4.634,0,-0.96,0.288,0.08,9.512,-11.463,5.61,0,0.084,0.903,0.361,7.134,-10.61,-1.159,464.778,-0.714,0.076,-0.746,36.463,6.646,47.195,1115.889,-1.068,-0.333,0.283,-0.366,31.585,11.037,1209.362,83,1,1,1,1.732,1,0,0,1,1,1
2018-07-04T12:04:17.738575,-1.019,0.158,-0.063,1.033099221,8.797219326,1.707,2.439,-7.317,0,-0.96,0.288,0.08,5.183,-6.037,2.195,0,0.084,0.903,0.361,1.89,-9.939,-1.098,464.778,-0.714,0.076,-0.746,22.439,18.902,39.878,1115.889,-1.068,-0.333,0.283,-66.89,15.305,1.585,1209.362,75,1,1,1,1.732,1,0,0,1,1,1
2018-07-04T12:04:17.738576,-1.019,0.158,-0.063,1.033099221,8.797219326,9.451,2.317,-12.012,0,-0.971,0.275,0.09,8.171,-3.049,-1.89,0,0.087,0.9,0.362,4.634,-11.159,-0.671,464.778,-0.688,0.102,-0.794,16.28,7.012,28.78,1115.889,-1.081,-0.58,0.479,16.646,-4.329,7.5,1209.362,-259,1,1,1,1.732,1,0,0,1,1,1
2018-07-04T12:04:17.738577,-1.032,0.134,-0.071,1.043082451,7.380922407,12.134,3.72,-15.793,0,-0.971,0.307,0.085,16.646,-5.732,-6.524,0,0.087,0.9,0.362,10.793,-11.951,-0.671,464.778,-0.658,0.097,-0.827,21.22,23.841,27.195,1115.889,-1.081,-0.58,0.479,86.707,-23.598,-9.878,1209.362,232,1,1,1,1.732,1,0,0,1,1,1
2018-07-04T12:04:17.738578,-1.031,0.103,-0.082,1.039371926,5.687249462,11.159,9.146,-29.085,0,-0.971,0.307,0.085,15.671,-5.122,-7.195,0,0.133,0.931,0.351,8.902,-12.805,-0.061,464.778,-0.658,0.097,-0.827,17.073,14.573,23.11,1115.889,-1.055,-0.611,0.627,29.939,-77.988,-43.598,1209.362,70,1,1,1,1.732,1,0,0,1,1,1
2018-07-04T12:04:17.738579,-1.031,0.103,-0.082,1.039371926,5.687249462,8.11,8.476,-31.28,0,-0.97,0.295,0.079,12.012,-3.72,-5.915,0,0.133,0.931,0.351,3.841,-11.159,1.585,464.778,-0.621,0.114,-0.837,15.488,19.268,19.146,1115.889,-0.991,-0.601,0.499,72.683,-97.988,-40.122,1209.362,-54,1,1,1,1.732,1,0,0,1,1,1
2018-07-04T12:04:17.738580,-1.044,0.044,-0.1,1.04970091,2.402353947,0.427,4.451,-29.146,0,-0.969,0.247,0.079,7.256,-6.829,1.524,0,0.127,0.906,0.292,4.146,-9.207,4.207,464.778,-0.621,0.114,-0.837,13.476,17.988,16.89,1115.889,-0.991,-0.601,0.499,82.561,-106.159,-41.646,1209.362,102,1,1,1,1.732,1,0,0,1,1,1
2018-07-04T12:04:17.738581,-1.044,0.044,-0.1,1.04970091,2.402353947,-3.963,3.415,-27.134,0,-0.969,0.247,0.079,6.402,-4.878,-0.427,0,0.117,0.914,0.294,7.866,-11.037,4.756,464.778,-0.633,0.094,-0.84,15.793,19.085,11.768,1115.889,-0.965,-0.511,0.303,79.573,-112.073,-38.171,1209.362,83,1,1,1,1.732,1,0,0,1,1,1
2018-07-04T12:04:17.738582,-1.042,0.004,-0.092,1.046061184,0.219092038,-5.915,4.024,-24.085,0,-0.997,0.23,0.077,6.22,-1.159,-3.476,0,0.117,0.914,0.294,8.049,-10.61,1.951,464.778,-0.653,0.104,-0.804,12.439,18.049,11.524,1115.889,-0.965,-0.511,0.303,59.817,-108.902,-35.305,1209.362,212,1,1,1,1.732,1,0,0,1,1,1
2018-07-04T12:04:17.738583,-1.079,0.057,-0.083,1.083687686,3.015045039,-12.073,5.122,-27.073,0,-0.997,0.23,0.077,9.268,-0.488,-6.585,0,0.093,0.905,0.251,7.622,-10.976,2.439,464.778,-0.653,0.104,-0.804,15.793,20.305,8.902,1115.889,-0.774,-0.468,0.215,15,-73.415,-48.171,1209.362,66,1,1,1,1.732,1,0,0,1,1,1
2018-07-04T12:04:17.738584,-1.079,0.057,-0.083,1.083687686,3.015045039,-26.037,6.28,-33.659,0,-0.99,0.192,0.08,9.817,2.561,-10.854,0,0.021,1.011,0.06,22.988,-20.854,4.512,464.778,-0.611,0.133,-0.784,16.402,27.012,9.085,1115.889,-0.241,-0.392,0.385,35,-48.171,-50.732,1209.362,-55,1,1,1,1.732,1,0,0,1,1,1
2018-07-04T12:04:17.738585,-1.085,-0.078,0.027,1.088135102,-4.11061728,-48.354,10.549,-50,0,-0.99,0.192,0.08,12.805,3.537,-7.439,0,0.021,1.011,0.06,32.134,-20.427,12.256,464.778,-0.611,0.133,-0.784,9.817,45.732,15.122,1115.889,-0.241,-0.392,0.385,83.537,-21.89,-55.61,1209.362,72,1,1,1,1.732,1,0,0,1,1,1
2018-07-04T12:04:17.738586,-1.085,-0.078,0.027,1.088135102,-4.11061728,-44.878,35.549,-56.524,0,-1.026,0.124,0.147,6.22,6.341,31.707,0,0.054,1.03,0.09,1.829,-42.073,3.963,464.778,-0.743,0.237,-0.529,156.524,8.963,3.72,1115.889,-0.371,-0.093,0.333,129.512,-8.537,-9.573,1209.362,360,1,1,1,1.732,1,0,0,1,1,1
2018-07-04T12:04:17.738587,-0.841,-0.305,-0.224,0.92221581,-19.31279754,-28.415,25,-3.902,0,-1.19,0.007,0.034,-17.439,-9.085,56.585,0,0.334,0.628,0.028,-27.561,-18.354,-36.341,464.778,-0.439,-0.16,-0.336,120.122,65.305,-67.378,1115.889,-0.484,-0.198,0.101,-12.073,-15.305,25.976,1209.362,9,1,1,1,1.732,1,0,0,1,1,1
2018-07-04T12:04:17.738588,-1.102,0.038,-0.328,1.150405146,1.892929422,29.207,29.756,-2.805,0,-1.19,0.007,0.034,28.902,-53.659,18.415,0,0.334,0.628,0.028,-1.22,1.707,-26.463,464.778,-0.439,-0.16,-0.336,52.866,69.573,-48.11,1115.889,-0.484,-0.198,0.101,41.585,12.073,34.39,1209.362,196,1,1,1,1.732,1,0,0,1,1,1
2018-07-04T12:04:17.738589,-1.102,0.038,-0.328,1.150405146,1.892929422,22.988,31.402,-31.951,0,-0.814,0.352,-0.101,41.098,-36.585,-17.317,0,0.521,0.503,0.278,64.146,16.585,-35.976,464.778,-0.154,-0.252,-0.242,50.671,46.646,-22.378,1115.889,-0.653,-0.107,0.295,35.305,39.085,20.549,1209.362,-52,1,1,1,1.732,1,0,0,1,1,1
2018-07-04T12:04:17.738590,-1.046,-0.141,-0.199,1.074056796,-7.543447775,-4.085,37.805,-80.061,0,-0.526,0.708,0.071,-6.89,-57.805,1.707,0,0.521,0.503,0.278,63.293,38.902,-13.72,464.778,-0.124,-0.214,-0.659,-26.951,64.512,10,1115.889,-0.653,-0.107,0.295,8.963,38.171,-7.866,1209.362,18,1,1,0,1.414,1,0,0,1,1,1
2018-07-04T12:04:17.738591,-1.046,-0.141,-0.199,1.074056796,-7.543447775,-10.427,28.11,-86.28,0,-0.526,0.708,0.071,-80.976,-50.427,12.927,0,-0.009,0.799,0.412,115.61,12.866,28.841,464.778,-0.124,-0.214,-0.659,-70,96.89,23.72,1115.889,-0.618,0.181,0.682,106.585,30.732,-14.573,1209.362,-11,1,1,0,1.414,1,0,0,1,1,1
2018-07-04T12:04:17.738592,-0.903,-0.315,-0.328,1.011047971,-18.15314291,2.805,15.366,-115.854,0,-0.676,0.549,0.286,-114.329,-57.378,1.402,0,-0.278,1.073,0.547,-38.049,34.085,-27.5,464.778,-0.274,0.05,-0.927,-40.122,77.134,27.134,1115.889,-0.66,0.697,0.817,277.805,30.122,30.61,1209.362,330,1,1,0,1.414,1,0,0,1,1,1
2018-07-04T12:04:17.738593,-0.756,-0.549,-0.256,0.968748161,-34.52117358,13.78,10.61,-82.988,0,-0.894,0.305,0.382,-39.878,14.512,-18.72,0,-0.278,1.073,0.547,18.476,2.5,-18.963,464.778,-0.303,0.134,-0.982,-41.463,86.951,-23.902,1115.889,-0.66,0.697,0.817,159.573,9.268,55.671,1209.362,150,1,1,0,1.414,1,0,0,1,1,1
2018-07-04T12:04:17.738594,-0.756,-0.549,-0.256,0.968748161,-34.52117358,6.951,24.329,-80.732,0,-0.894,0.305,0.382,-8.232,-8.659,-30.793,0,-0.079,0.623,0.41,112.317,-6.951,-2.988,464.778,-0.303,0.134,-0.982,-61.463,65.366,-31.341,1115.889,-0.565,0.361,-0.114,10.732,18.78,71.768,1209.362,89,1,1,0,1.414,1,0,0,1,1,1
2018-07-04T12:04:17.738595,-0.813,-0.99,-0.449,1.357449815,-46.82847368,62.012,34.756,-97.622,0,-0.65,0.536,0.409,14.939,25.732,-71.463,0,-0.079,0.623,0.41,106.829,-30.793,-1.768,464.778,-0.373,0.121,-0.816,-43.598,102.622,-17.378,1115.889,-0.565,0.361,-0.114,-40.854,42.744,68.476,1209.362,164,1,1,0,1.414,1,0,0,1,1,1
2018-07-04T12:04:17.738596,-0.679,-0.813,-0.48,1.16293164,-44.35446176,27.378,46.585,-203.781,0,-0.394,0.394,0.375,-19.756,29.451,-145.488,0,-0.136,0.365,0.195,316.585,-59.085,43.354,464.778,-0.373,0.121,-0.816,-12.317,87.073,3.049,1115.889,-2.229,-0.873,-0.649,-58.659,103.598,-160.976,1209.362,-46,1,1,0,1.414,1,0,0,1,1,1
2018-07-04T12:04:17.738597,-0.679,-0.813,-0.48,1.16293164,-44.35446176,36.585,27.988,-178.963,0,-0.394,0.394,0.375,-16.829,60.366,-191.342,0,-0.052,0.56,-0.384,388.049,-80.61,57.683,464.778,0.22,0.01,-1.267,29.817,47.378,-27.744,1115.889,-3.764,-0.147,2.431,-254.878,-54.512,-209.207,1209.362,194,1,1,0,1.414,1,0,0,1,1,1
2018-07-04T12:04:17.738598,-0.839,-0.29,-0.374,0.963274104,-17.52107435,135.427,-5.061,-51.037,0,-0.289,-0.326,0.044,2.5,185.305,-205.244,0,0.38,0.604,-0.493,110,-1.707,56.646,464.778,0.788,-0.474,-2.321,168.354,3.963,-29.268,1115.889,-0.062,0.095,0.437,-32.744,-42.012,-75.793,1209.362,51,1,1,0,1.414,1,0,0,1,1,1
2018-07-04T12:04:17.738599,-1.194,-1.37,0.211,1.829496379,-48.48999155,82.439,-50,-86.402,0,-0.491,-0.765,-0.218,-35.061,160.976,-181.281,0,-0.165,-0.345,-2.276,-24.756,-12.683,24.756,464.778,0.438,0.4,-0.602,-89.878,227.317,-147.866,1115.889,-0.222,-1.006,0.501,-16.22,69.939,10.915,1209.362,0,1,1,0,1.414,1,0,0,1,1,1
2018-07-04T12:04:17.738600,-1.263,-1.734,0.027,2.145379687,-53.92516034,149.207,-73.11,-112.866,0,-0.685,-1.572,-0.228,13.232,122.683,-191.768,0,-0.165,-0.345,-2.276,661.524,-350.549,-46.037,464.778,0.438,0.4,-0.602,37.988,-32.195,7.805,1115.889,-0.222,-1.006,0.501,-27.012,46.524,0.366,1209.362,145,1,1,0,1.414,1,0,0,1,1,1
2018-07-04T12:04:17.738601,-1.263,-1.734,0.027,2.145379687,-53.92516034,165.061,-104.451,-159.939,0,-0.685,-1.572,-0.228,93.659,68.476,-235.549,0,-0.704,-0.194,-2.282,86.463,-139.512,-33.537,464.778,0.922,-0.32,-0.793,-244.39,-30.061,-62.134,1115.889,-0.614,-0.177,0.181,-47.439,26.159,-0.366,1209.362,49,1,1,0,1.414,1,0,0,1,1,1
2018-07-04T12:04:17.738602,0.962,-0.899,0.108,1.321101434,-42.88216335,206.89,-83.415,-200.488,0,-0.458,-2.331,-0.729,9.573,124.329,-328.598,0,-0.704,-0.194,-2.282,5.244,-65.793,-17.805,464.778,0.287,-0.952,-2.203,-138.781,117.988,-28.415,1115.889,-0.614,-0.177,0.181,-19.695,59.085,18.232,1209.362,34,1,1,0,1.414,1,0,0,1,1,1
2018-07-04T12:04:17.738603,0.962,-0.899,0.108,1.321101434,-42.88216335,114.085,-6.646,-155.854,0,-0.458,-2.331,-0.729,125.488,31.28,-206.524,0,-0.183,-0.308,-2.822,66.524,10.854,-12.622,464.778,0.287,-0.952,-2.203,417.805,-88.963,28.963,1115.889,-2.507,-0.017,0.479,-40.61,93.476,23.963,1209.362,17,1,1,0,1.414,1,0,0,1,1,1
2018-07-04T12:04:17.738604,0.475,-0.369,0.717,0.935881937,-23.22110837,-97.012,15.305,-26.646,0,0.309,-2.221,-0.342,-8.232,-29.634,12.5,0,-0.04,0.171,-0.652,100.488,55.976,-24.146,464.778,0.713,0.348,-1.81,-58.72,80.854,-91.89,1115.889,-1.115,-0.141,0.185,-30.183,72.439,133.72,1209.362,26,1,1,0,1.414,1,0,0,1,1,1
2018-07-04T12:04:17.738605,-0.249,-0.468,0.208,0.569463783,-55.26797808,-164.451,2.439,-63.841,0,0.06,-0.553,-0.117,-43.598,-6.524,-24.085,0,-0.04,0.171,-0.652,4.878,154.512,-23.841,464.778,0.232,0.093,-0.951,0.854,-42.012,1.707,1115.889,-1.115,-0.141,0.185,-48.293,-3.78,172.317,1209.362,12,1,1,0,1.414,1,0,0,1,1,1
2018-07-04T12:04:17.738606,-0.249,-0.468,0.208,0.569463783,-55.26797808,-132.256,-10.793,-90.366,0,0.06,-0.553,-0.117,-45.976,21.829,-26.646,0,0.073,-0.224,-0.167,-55.915,85.305,11.28,464.778,0.232,0.093,-0.951,-169.207,46.341,-22.988,1115.889,0.094,-0.258,-0.178,-21.341,-42.073,94.146,1209.362,-37,1,1,0,1.414,1,0,0,1,1,1
2018-07-04T12:04:17.738607,0.087,0.041,-0.008,0.096509067,25.13993826,-144.695,-3.78,-106.768,0,0.17,0.08,-0.154,-37.683,45.122,-1.28,0,0.073,-0.224,-0.167,-8.598,17.683,22.256,464.778,0.174,-0.143,-0.542,-101.707,-54.512,-28.537,1115.889,0.094,-0.258,-0.178,-17.317,-53.72,11.037,1209.362,117,1,1,0,1.414,1,0,0,1,1,1
2018-07-04T12:04:17.738608,0.322,0.19,0.006,0.373925126,30.53889207,-119.451,7.195,-112.5,0,0.043,-0.339,0.007,-111.22,24.634,-12.012,0,0.051,-0.26,-0.546,11.463,65.488,48.902,464.778,0.19,-0.037,-0.733,-39.207,-22.988,-19.817,1115.889,-0.805,-0.193,0.103,31.585,-14.634,-43.232,1209.362,123,1,1,0,1.414,1,0,0,1,1,1
2018-07-04T12:04:17.738609,0.322,0.19,0.006,0.373925126,30.53889207,-87.683,8.841,-87.927,0,0.043,-0.339,0.007,-146.037,41.22,-0.183,0,-0.557,-0.007,-0.822,17.012,16.768,21.829,92.099,0.19,-0.037,-0.733,30.549,-17.5,-20.427,898.827,-1.447,-0.272,0.336,5.732,-0.366,-33.171,2459.771,182,0,0,0,0,1,0,0,1,1,1
2018-07-04T12:04:17.738610,0.768,-0.333,-0.369,0.914808177,-21.34671454,152.439,3.902,-0.61,0,-0.126,-1.383,-0.349,-174.695,-15.488,32.5,0,-0.122,-0.029,-1.259,-49.39,-21.098,-9.39,92.099,0.316,0.153,-1.183,34.146,-5.793,-4.451,898.827,-1.157,-0.064,0.245,-4.268,26.22,-22.866,2459.771,432,0,0,0,0,1,0,0,1,1,1
2018-07-04T12:04:17.738611,1.542,-0.776,-0.021,1.726378,-26.71135222,241.768,-9.817,76.951,0,-0.166,-1.159,-0.858,-66.646,-63.171,32.439,0,-0.122,-0.029,-1.259,-62.805,-57.988,-16.402,92.099,0.292,-0.124,-1.567,34.756,54.024,-3.659,898.827,-1.157,-0.064,0.245,-6.89,-1.098,-10.183,2459.771,-187,0,0,0,0,1,0,0,1,1,1
2018-07-04T12:04:17.738612,1.542,-0.776,-0.021,1.726378,-26.71135222,190.976,54.268,164.939,0,-0.166,-1.159,-0.858,59.268,-77.805,41.28,0,0.317,0.048,-1.507,-53.049,-44.695,-15.549,92.099,0.292,-0.124,-1.567,17.317,15.671,9.634,898.827,-1.183,0.142,0.46,0.61,-46.037,14.207,2459.771,-394,0,0,0,0,1,0,0,1,1,1
2018-07-04T12:04:17.738613,-0.328,-1.251,0.586,1.419852457,-61.77261145,25.366,62.073,219.268,0,-0.355,-0.936,-0.845,81.646,-85.244,44.817,0,0.317,0.048,-1.507,-13.537,-5.732,-5.244,92.099,0.185,0.128,-1.158,-17.622,-52.317,5.976,898.827,-1.183,0.142,0.46,11.463,-90.427,34.146,2459.771,-193,0,0,0,0,1,0,0,1,1,1
2018-07-04T12:04:17.738614,-0.328,-1.251,0.586,1.419852457,-61.77261145,-145.854,18.293,191.463,0,-0.193,-0.706,-0.64,-13.476,15.366,30.061,0,0.213,0.056,-1.17,9.024,9.146,1.829,92.099,0.185,0.128,-1.158,-7.134,-46.341,3.537,898.827,-1.194,-0.109,0.819,-6.28,-117.744,57.988,2459.771,-227,0,0,0,0,1,0,0,1,1,1
2018-07-04T12:04:17.738615,-0.707,-1.532,-0.083,1.689308142,-65.07770847,-183.842,-0.793,93.049,0,-0.193,-0.706,-0.64,26.707,41.341,37.012,0,-0.152,0.049,-0.69,-16.768,65.671,3.11,92.099,-0.028,0.048,-0.918,-29.878,-7.134,12.927,898.827,-1.194,-0.109,0.819,-8.537,-111.585,60.183,2459.771,-147,0,0,0,0,1,0,0,1,1,1
2018-07-04T12:04:17.738616,-0.059,-0.983,-0.046,0.985842787,-85.64778492,-38.415,5.061,-23.049,0,-0.285,-0.611,-0.245,0.976,42.622,33.11,0,-0.152,0.049,-0.69,-20.549,30.854,-0.671,92.099,-0.063,0.163,-0.874,-79.329,-2.744,11.159,898.827,-1.017,-0.137,0.687,-15.183,-90.61,16.768,2459.771,0,0,0,0,0,1,0,0,1,1,1
2018-07-04T12:04:17.738617,-0.059,-0.983,-0.046,0.985842787,-85.64778492,-10.366,3.78,-32.012,0,-0.285,-0.611,-0.245,-68.415,29.939,22.927,0,-0.182,0.125,-0.683,-14.085,3.902,-0.549,92.099,-0.063,0.163,-0.874,-52.195,16.951,-0.488,898.827,0.078,-0.053,0.013,-89.329,-122.805,-16.585,2459.771,115,0,0,0,0,1,0,0,1,1,1
2018-07-04T12:04:17.738618,0.063,-0.935,0.062,0.939168781,-84.59953513,36.402,-1.402,9.146,0,-0.419,-0.789,-0.399,15.854,-18.659,9.695,0,-0.182,0.125,-0.683,-9.634,-4.207,0.061,92.099,-0.02,0.03,-0.884,5.549,13.354,5.61,898.827,0.078,-0.053,0.013,183.415,-74.451,21.768,2459.771,86,0,0,0,0,1,0,0,1,1,1
2018-07-04T12:04:17.738619,-0.156,-1.344,0.104,1.35701437,-82.05846085,85.549,-12.073,61.524,0,-0.371,-0.901,-0.507,15.183,-8.902,-3.354,0,-0.107,0.121,-0.963,-0.732,-38.354,-2.927,92.099,-0.02,0.03,-0.884,26.951,1.524,11.341,898.827,-0.19,0.052,-0.287,-123.598,48.72,-58.78,2459.771,116,0,0,0,0,1,0,0,1,1,1
2018-07-04T12:04:17.738620,-0.156,-1.344,0.104,1.35701437,-82.05846085,84.268,-10.732,38.232,0,-0.371,-0.901,-0.507,22.378,1.646,-17.378,0,-0.012,0.117,-1.095,4.634,-43.476,-2.134,92.099,0.016,0.055,-0.921,67.195,2.317,19.451,898.827,-1.746,-0.046,1.402,-26.89,58.049,-68.902,2459.771,2,0,0,0,0,1,0,0,1,1,1
2018-07-04T12:04:17.738621,-0.147,-1.491,0.154,1.506122837,-81.87378831,71.341,-5.732,-1.585,0,-0.335,-0.875,-0.533,73.841,-24.451,-20.061,0,-0.012,0.117,-1.095,5.183,-44.451,-1.585,92.099,0.17,0.212,-1.179,76.951,11.037,22.866,898.827,-1.746,-0.046,1.402,-84.451,-21.28,-46.037,2459.771,57,0,0,0,0,1,0,0,1,1,1
2018-07-04T12:04:17.738622,-0.147,-1.491,0.154,1.506122837,-81.87378831,33.171,-1.402,-35.366,0,-0.292,-0.78,-0.345,91.037,-56.829,-11.402,0,0.056,0.052,-1.089,5.976,-36.402,-1.159,92.099,0.17,0.212,-1.179,90.854,1.098,29.512,898.827,-1.149,-0.031,1.115,-49.695,18.841,-3.841,2459.771,74,0,0,0,0,1,0,0,1,1,1
2018-07-04T12:04:17.738623,0.009,-1.088,0.146,1.097789142,-82.34273412,-15.976,2.439,-59.024,0,-0.292,-0.78,-0.345,50.732,-36.159,-16.829,0,0.056,0.052,-1.089,7.195,-19.146,-2.012,92.099,0.251,0.054,-1.264,72.988,-13.049,26.037,898.827,-1.149,-0.031,1.115,-16.585,43.78,-0.793,2459.771,53,0,0,0,0,1,0,0,1,1,1
2018-07-04T12:04:17.738624,0.009,-1.088,0.146,1.097789142,-82.34273412,-58.415,7.378,-73.72,0,-0.264,-0.881,-0.336,7.134,-4.634,-22.439,0,0.005,0.075,-1.129,4.573,-0.122,-2.134,92.099,0.251,0.054,-1.264,9.878,3.72,19.451,898.827,-0.716,-0.116,0.57,-32.866,21.585,-15.671,2459.771,129,0,0,0,0,1,0,0,1,1,1
2018-07-04T12:04:17.738625,0.184,-0.526,0.021,0.557649532,-70.60381329,-40.732,-2.012,-9.512,0,-0.284,-0.97,-0.358,11.829,6.098,-3.659,0,-0.126,0.086,-0.975,3.78,10.915,0.732,92.099,0.161,-0.059,-1.025,-36.037,25.793,-7.927,898.827,-0.781,-0.285,0.368,21.28,-25.488,19.146,2459.771,-4,0,0,0,0,1,0,0,1,1,1
2018-07-04T12:04:17.738626,0.184,-0.526,0.021,0.557649532,-70.60381329,-10.305,3.78,0.061,0,-0.243,-0.943,-0.211,28.902,2.378,-1.098,0,-0.212,0.073,-0.838,-8.171,-7.683,-1.28,92.099,0.161,-0.059,-1.025,2.805,4.695,1.402,898.827,-0.722,-0.188,0.596,20,-15.366,7.073,2459.771,72,0,0,0,0,1,0,0,1,1,1
2018-07-04T12:04:17.738627,0.092,-0.549,0.085,0.56310745,-77.14781002,23.171,9.39,5.366,0,-0.243,-0.943,-0.211,49.329,-15.793,10.183,0,-0.165,0.061,-0.788,-8.902,-15.366,-1.768,92.099,0.129,-0.044,-0.9,-3.78,9.817,-4.39,898.827,-0.722,-0.188,0.596,17.134,-5.671,-20.915,2459.771,0,0,0,0,0,1,0,0,1,1,1
2018-07-04T12:04:17.738628,0.153,-0.797,0.277,0.857523761,-68.34463161,61.524,2.622,42.744,0,-0.239,-0.803,-0.042,50,-31.28,20.488,0,-0.165,0.061,-0.788,-6.646,-15.793,-1.037,92.099,0.158,-0.062,-0.979,33.171,3.476,-6.28,898.827,-0.892,-0.245,0.699,0.732,-35.305,2.195,2459.771,72,1,0,0,1,1,0,0,1,1,1
2018-07-04T12:04:17.738629,0.153,-0.797,0.277,0.857523761,-68.34463161,40.305,-4.451,70.915,0,-0.314,-0.856,-0.067,15.793,-23.415,17.988,0,-0.106,0.072,-0.982,-4.024,-10.122,-0.122,92.099,0.158,-0.062,-0.979,33.049,-2.439,-8.415,898.827,-0.77,-0.124,0.742,10.427,-53.11,22.378,2459.771,23,1,0,0,1,1,0,0,1,1,1
2018-07-04T12:04:17.738630,-0.139,-1.254,0.264,1.289004655,-76.61676704,3.841,-4.634,82.195,0,-0.314,-0.856,-0.067,-14.146,-1.585,7.012,0,-0.106,0.072,-0.982,-1.524,-5.549,0.549,92.099,0.176,-0.047,-1.108,14.085,-7.5,-2.439,898.827,-0.77,-0.124,0.742,6.037,-54.024,23.11,2459.771,23,1,0,0,1,1,0,0,1,1,1
2018-07-04T12:04:17.738631,-0.139,-1.254,0.264,1.289004655,-76.61676704,-9.207,-1.829,69.146,0,-0.383,-0.995,-0.229,-36.707,16.585,-1.951,0,-0.086,0.136,-1.154,3.11,9.634,1.524,92.099,0.143,-0.092,-1.159,16.037,-16.037,-11.098,898.827,-0.716,-0.053,0.942,-1.402,-37.622,11.28,2459.771,138,1,0,0,1,1,0,0,1,1,1
2018-07-04T12:04:17.738632,-0.258,-1.439,0.191,1.474369696,-77.42458995,-13.598,2.988,6.28,0,-0.371,-0.906,-0.298,-43.171,9.817,11.22,0,-0.065,0.119,-1.02,1.829,16.89,2.378,92.099,0.143,-0.092,-1.159,3.049,-10,-13.537,898.827,-0.716,-0.126,0.848,1.098,-7.195,-2.5,2459.771,-57,1,0,0,1,1,0,0,1,1,1
2018-07-04T12:04:17.738633,-0.151,-1.166,0.085,1.178805327,-81.54709752,-39.451,2.195,-11.098,0,-0.371,-0.906,-0.298,-46.341,5.488,15.183,0,-0.065,0.119,-1.02,0.488,18.841,2.744,92.099,0.122,-0.097,-1.133,19.878,-23.232,8.11,898.827,-0.716,-0.126,0.848,1.829,-4.878,0.671,2459.771,9,1,0,0,1,1,0,0,1,1,1
2018-07-04T12:04:17.738634,-0.06,-0.897,-0.023,0.899298616,-85.90257144,-27.744,-3.171,-18.354,0,-0.371,-0.836,-0.329,-45.183,8.598,9.634,0,-0.074,0.084,-0.894,-2.256,10.854,1.341,92.099,0.056,-0.029,-0.968,-28.72,53.171,-25.366,898.827,-0.68,-0.147,0.755,1.402,-4.573,7.5,2459.771,51,1,0,0,1,1,0,0,1,1,1
2018-07-04T12:04:17.738635,-0.06,-0.897,-0.023,0.899298616,-85.90257144,-2.683,-3.476,-13.293,0,-0.337,-0.851,-0.384,-28.963,13.841,-5.976,0,-0.088,0.087,-0.914,-1.463,5,0.549,92.099,0.056,-0.029,-0.968,3.476,-0.244,3.963,898.827,-0.647,-0.124,0.772,0.366,-0.427,9.207,2459.771,72,1,0,0,1,1,0,0,1,1,1
2018-07-04T12:04:17.738636,0.006,-0.807,0.002,0.807024783,-89.55097533,8.171,-2.988,-5.61,0,-0.337,-0.851,-0.384,-11.951,7.317,-6.829,0,-0.088,0.087,-0.914,-0.366,-0.061,0.183,92.099,0.146,-0.099,-0.931,15.61,-46.768,18.11,898.827,-0.647,-0.124,0.772,-2.866,9.878,7.561,2459.771,-59,1,0,0,1,1,0,0,1,1,1
2018-07-04T12:04:17.738637,-0.043,-0.984,0.017,0.985085783,-87.30962985,7.378,-2.195,20.061,0,-0.322,-0.868,-0.387,8.72,-4.817,-3.171,0,-0.072,0.091,-0.975,2.378,-6.585,0,92.099,0.138,-0.071,-1.022,13.11,29.146,5.366,898.827,-0.723,-0.093,0.818,0.427,38.293,-6.524,2459.771,323,1,0,0,1,1,0,0,1,1,1
2018-07-04T12:04:17.738638,-0.043,-0.984,0.017,0.985085783,-87.30962985,11.768,-0.061,25.732,0,-0.336,-0.88,-0.378,13.293,-5.915,-3.537,0,-0.064,0.094,-1.008,3.415,-7.866,-0.366,92.099,0.138,-0.071,-1.022,33.598,-33.476,25.061,898.827,-0.814,-0.105,0.781,1.524,40.549,-7.866,2459.771,155,1,0,0,1,1,0,0,1,1,1
2018-07-04T12:04:17.738639,-0.132,-1.094,0.074,1.104416588,-82.12454139,13.963,2.439,20.671,0,-0.336,-0.88,-0.378,21.463,-9.817,-3.78,0,-0.064,0.094,-1.008,2.317,-7.012,-0.549,92.099,0.173,-0.122,-1.143,18.78,4.024,3.659,898.827,-0.814,-0.105,0.781,0.671,33.902,-7.134,2459.771,103,1,0,0,1,1,0,0,1,1,1
2018-07-04T12:04:17.738640,-0.132,-1.094,0.074,1.104416588,-82.12454139,8.598,3.598,11.341,0,-0.328,-0.867,-0.32,17.805,-9.268,-1.037,0,-0.076,0.102,-0.995,-0.671,-1.89,-0.244,92.099,0.173,-0.122,-1.143,-1.829,31.768,-1.463,898.827,-0.813,-0.119,0.725,-0.976,26.585,-7.683,2459.771,3,1,0,0,1,1,0,0,1,1,1
2018-07-04T12:04:17.738641,-0.13,-1.053,0.143,1.070587689,-79.60014587,-0.671,3.963,4.451,0,-0.328,-0.867,-0.32,13.232,-8.963,2.683,0,-0.095,0.1,-0.965,-2.134,-0.427,-0.061,92.099,0.17,-0.153,-1.112,2.256,-3.11,3.415,898.827,-0.813,-0.119,0.725,-1.585,23.232,-12.683,2459.771,259,1,0,0,1,1,0,0,1,1,1
2018-07-04T12:04:17.738642,-0.13,-1.053,0.143,1.070587689,-79.60014587,-3.293,4.573,2.256,0,-0.344,-0.872,-0.296,8.171,-6.951,2.927,0,-0.095,0.1,-0.965,-2.805,0.488,0.122,92.099,0.143,-0.137,-1.025,-3.963,12.073,-4.756,898.827,-0.795,-0.163,0.667,-5,20.061,-13.72,2459.771,17,1,0,0,1,1,0,0,1,1,1
2018-07-04T12:04:17.738643,-0.11,-0.983,0.125,0.997002508,-80.3860465,6.524,0.488,0.854,0,-0.339,-0.878,-0.273,11.707,-8.232,1.341,0,-0.102,0.093,-0.945,-2.012,-0.671,-0.183,92.099,0.143,-0.137,-1.025,-5.427,0.671,-6.341,898.827,-0.813,-0.185,0.649,-1.829,19.878,-9.268,2459.771,131,1,0,0,1,1,0,0,1,1,1
2018-07-04T12:04:17.738644,-0.117,-0.946,0.126,0.96149935,-79.69839227,8.11,-0.976,0.732,0,-0.339,-0.878,-0.273,7.561,-5.671,1.646,0,-0.102,0.093,-0.945,-0.427,-0.122,0.061,92.099,0.14,-0.125,-0.986,1.22,-9.207,4.634,898.827,-0.813,-0.185,0.649,-5.793,21.585,-7.988,2459.771,-225,1,0,0,1,1,0,0,1,1,1
2018-07-04T12:04:17.738645,-0.117,-0.946,0.126,0.96149935,-79.69839227,1.22,-0.915,2.134,0,-0.339,-0.869,-0.247,4.756,-4.878,0.976,0,-0.104,0.098,-0.946,0.915,0.061,0.122,92.099,0.14,-0.125,-0.986,-5.244,-0.183,-2.622,898.827,-0.832,-0.177,0.628,-3.902,19.451,-7.866,2459.771,-19,1,0,0,1,1,0,0,1,1,1
2018-07-04T12:04:17.738646,-0.127,-0.997,0.103,1.010320246,-80.68586479,-3.72,0.122,2.744,0,-0.339,-0.869,-0.247,-1.524,-1.341,0.244,0,-0.09,0.105,-0.97,-0.366,-0.793,-0.183,92.099,0.152,-0.15,-1.026,4.634,0.366,-1.159,898.827,-0.832,-0.177,0.628,-0.427,12.378,-5.549,2459.771,-249,1,0,0,1,1,0,0,1,1,1
2018-07-04T12:04:17.738647,-0.131,-1.032,0.087,1.043912832,-81.33583161,-0.366,0.976,2.5,0,-0.346,-0.868,-0.268,-6.829,0.671,-0.366,0,-0.09,0.105,-0.97,0.915,0.366,0.244,92.099,0.144,-0.124,-1.054,-1.098,12.866,-6.524,898.827,-0.855,-0.191,0.636,1.89,-3.354,3.11,2459.771,803,1,0,0,1,1,0,0,1,1,1
2018-07-04T12:04:17.738648,-0.131,-1.032,0.087,1.043912832,-81.33583161,-1.89,1.646,1.829,0,-0.359,-0.892,-0.301,-10.976,2.744,-1.28,0,-0.087,0.107,-0.99,2.439,1.037,0.427,0,0.144,-0.124,-1.054,2.073,3.902,1.341,289.945,-0.852,-0.164,0.663,1.402,-5.732,6.098,2404.112,103,1,0,0,1,1,0,0,1,1,1
2018-07-04T12:04:17.738649,-0.129,-1.025,0.063,1.035004831,-82.0269997,-5.549,2.439,0.061,0,-0.359,-0.892,-0.301,-9.146,2.988,-1.707,0,-0.087,0.107,-0.99,2.5,0.976,0.549,0,0.171,-0.134,-1.065,0.976,1.768,-0.732,289.945,-0.852,-0.164,0.663,0.671,-6.402,7.134,2404.112,212,1,0,0,1,1,0,0,1,1,1
2018-07-04T12:04:17.738650,-0.129,-1.025,0.063,1.035004831,-82.0269997,-5.488,3.72,-2.683,0,-0.343,-0.871,-0.314,-8.659,2.805,-1.22,0,-0.086,0.101,-0.972,0.793,2.5,0.915,0,0.171,-0.134,-1.065,-1.768,2.927,-0.976,289.945,-0.821,-0.158,0.655,0.793,-4.451,5.793,2404.112,-245,1,0,0,1,1,0,0,1,1,1
2018-07-04T12:04:17.738651,-0.123,-0.988,0.088,0.999508379,-81.29699805,-1.341,3.049,-4.451,0,-0.342,-0.868,-0.323,-9.878,2.622,0.488,0,-0.084,0.094,-0.952,-0.854,0.671,0.366,0,0.176,-0.114,-1.032,-4.329,-7.683,4.573,289.945,-0.824,-0.154,0.645,1.28,6.159,-0.061,2404.112,892,1,0,0,1,1,0,0,1,1,1
2018-07-04T12:04:17.738652,-0.112,-0.969,0.11,0.981633842,-80.79767678,2.805,1.585,-1.524,0,-0.342,-0.867,-0.326,0.122,-0.366,-0.61,0,-0.086,0.099,-0.97,-0.061,0.305,0.366,0,0.176,-0.114,-1.032,-4.756,9.817,0.305,289.945,-0.824,-0.154,0.645,1.28,8.537,-1.89,2404.112,452,1,0,0,1,1,0,0,1,1,1
2018-07-04T12:04:17.738653,-0.112,-0.969,0.11,0.981633842,-80.79767678,6.037,0.671,0.671,0,-0.342,-0.867,-0.326,3.171,-1.463,-1.402,0,-0.086,0.099,-0.97,0.915,0.305,0.366,0,0.174,-0.088,-1.032,-0.854,-8.72,5.732,289.945,-0.848,-0.166,0.631,1.707,9.085,-2.195,2404.112,262,1,0,0,1,1,0,0,1,1,1
2018-07-04T12:04:17.738654,-0.121,-0.987,0.121,1.001724014,-80.16419072,-0.183,-0.305,1.707,0,-0.343,-0.878,-0.314,0.732,-0.122,-1.463,0,-0.088,0.101,-0.978,1.037,-0.122,0.244,0,0.174,-0.088,-1.032,2.012,-2.378,4.39,289.945,-0.852,-0.16,0.628,0.183,4.817,-0.305,2404.112,482,1,0,0,1,1,0,0,1,1,1
2018-07-04T12:04:17.738655,-0.125,-1.012,0.093,1.023922849,-81.24781776,-1.829,-0.427,0.854,0,-0.343,-0.878,-0.314,0.61,-0.427,-1.22,0,-0.088,0.101,-0.978,0.061,-1.341,-0.061,0,0.162,-0.104,-1.053,2.866,7.866,0.122,289.945,-0.852,-0.16,0.628,-0.183,2.073,-1.402,2404.112,391,1,0,0,1,1,0,0,1,1,1
2018-07-04T12:04:17.738656,-0.125,-1.012,0.093,1.023922849,-81.24781776,0.183,-0.366,-0.854,0,-0.34,-0.873,-0.317,2.134,-1.89,-0.305,0,-0.083,0.1,-0.968,-0.244,-1.524,-0.122,0,0.162,-0.104,-1.053,4.329,-5,2.927,289.945,-0.848,-0.162,0.632,-0.549,-0.488,-1.098,2404.112,-193,1,0,0,1,1,0,0,1,1,1
2018-07-04T12:04:17.738657,-0.117,-0.993,0.09,1.003911351,-81.54481047,0.183,0,-1.707,0,-0.34,-0.873,-0.317,5.427,-3.841,0.244,0,-0.083,0.1,-0.968,0,-0.488,0,0,0.174,-0.115,-1.054,-1.463,7.927,-1.524,289.945,-0.848,-0.162,0.632,-0.61,-1.707,-0.854,2404.112,-190,1,0,0,1,1,0,0,1,1,1
2018-07-04T12:04:17.738658,-0.117,-0.993,0.09,1.003911351,-81.54481047,-1.707,0.488,-0.549,0,-0.341,-0.865,-0.302,0,-1.037,-0.793,0,-0.086,0.103,-0.971,0.793,0.671,0.366,0,0.166,-0.112,-1.038,4.512,-0.915,1.402,289.945,-0.844,-0.173,0.636,-0.915,-2.378,-1.22,2404.112,-38,1,0,0,1,1,0,0,1,1,1
2018-07-04T12:04:17.738659,-0.117,-0.988,0.093,0.999240712,-81.39784147,0.305,1.646,-0.244,0,-0.342,-0.877,-0.305,-1.585,0.549,-1.341,0,-0.093,0.104,-0.97,0.366,0.183,0.305,0,0.166,-0.112,-1.038,-1.22,6.89,-2.744,289.945,-0.839,-0.177,0.635,-0.183,-0.549,-0.854,2404.112,20,1,0,0,1,1,0,0,1,1,1
2018-07-04T12:04:17.738660,-0.119,-0.992,0.108,1.004932336,-80.79816265,1.28,1.829,0.183,0,-0.342,-0.877,-0.305,-4.146,0.976,-0.671,0,-0.093,0.104,-0.97,0.061,0.061,0.305,0,0.175,-0.138,-1.042,6.951,2.317,0.671,289.945,-0.839,-0.177,0.635,0.305,0.366,-0.366,2404.112,69,1,0,0,1,1,0,0,1,1,1
2018-07-04T12:04:17.738661,-0.119,-0.992,0.108,1.004932336,-80.79816265,1.768,1.159,0.427,0,-0.34,-0.875,-0.312,1.768,-1.768,-0.122,0,-0.089,0.101,-0.965,0.488,-0.488,0.244,0,0.183,-0.122,-1.039,0.305,-0.793,-0.061,289.945,-0.843,-0.168,0.635,0.488,0.915,0.061,2404.112,-85,1,0,0,1,1,0,0,1,1,1
2018-07-04T12:04:17.738662,-0.123,-0.994,0.116,1.008276252,-80.34685721,1.402,0.793,0.183,0,-0.339,-0.868,-0.302,1.341,-1.463,-0.427,0,-0.086,0.102,-0.97,0.732,0.061,0.305,0,0.183,-0.122,-1.039,0.122,1.098,1.585,289.945,-0.843,-0.168,0.635,0.488,0.915,0.427,2404.112,299,1,0,0,1,1,0,0,1,1,1
2018-07-04T12:04:17.738663,-0.123,-0.994,0.116,1.008276252,-80.34685721,-0.976,0.671,-0.305,0,-0.339,-0.868,-0.302,-1.646,0.183,-1.037,0,-0.086,0.102,-0.97,1.037,0.793,0.366,0,0.178,-0.119,-1.037,-2.317,2.378,2.622,289.945,-0.847,-0.17,0.636,0.366,1.28,0.488,2404.112,136,1,0,0,1,1,0,0,1,1,1
2018-07-04T12:04:17.738664,-0.122,-1,0.102,1.01256506,-80.96436736,-2.012,0.305,-1.098,0,-0.338,-0.876,-0.311,-2.317,0.183,-0.793,0,-0.09,0.104,-0.971,0.488,0.366,0.305,0,0.184,-0.119,-1.044,-3.293,-2.134,0.671,289.945,-0.845,-0.17,0.632,0.305,0.244,0.061,2404.112,-4,1,0,0,1,1,0,0,1,1,1
2018-07-04T12:04:17.738665,-0.112,-0.991,0.093,1.001635662,-81.64300678,-0.305,0.427,-1.22,0,-0.337,-0.874,-0.314,-1.098,-0.427,-0.488,0,-0.086,0.101,-0.97,0.305,0.488,0.366,0,0.184,-0.119,-1.044,-0.671,3.902,-0.793,289.945,-0.845,-0.17,0.632,0.305,-0.915,0.854,2404.112,44,1,0,0,1,1,0,0,1,1,1
2018-07-04T12:04:17.738666,-0.112,-0.991,0.093,1.001635662,-81.64300678,-0.61,0.793,-0.732,0,-0.337,-0.874,-0.314,-0.244,-0.732,-0.671,0,-0.086,0.101,-0.97,0.671,0.549,0.366,0,0.18,-0.118,-1.041,0.854,-1.037,-0.427,289.945,-0.843,-0.167,0.635,0.305,-1.098,0.61,2404.112,-52,1,0,0,1,1,0,0,1,1,1
2018-07-04T12:04:17.738667,-0.114,-0.992,0.092,1.002758196,-81.59963229,-0.61,0.976,-0.488,0,-0.335,-0.871,-0.313,-2.378,0.061,-0.732,0,-0.086,0.101,-0.967,0.854,0.488,0.366,0,0.184,-0.115,-1.04,-0.976,-1.28,0.183,289.945,-0.841,-0.17,0.637,0.305,-0.549,0.366,2404.112,117,1,0,0,1,1,0,0,1,1,1
2018-07-04T12:04:17.738668,-0.116,-0.994,0.102,1.005930415,-81.16693138,1.037,0.976,-0.183,2.323,-0.336,-0.873,-0.317,-1.768,-0.366,-0.244,2.692,-0.088,0.102,-0.969,0.549,0,0.244,0,0.184,-0.115,-1.04,-1.524,-0.061,0.671,289.945,-0.841,-0.17,0.637,0.488,-0.061,0.305,2404.112,-3,1,0,0,1,1,0,0,1,1,1
2018-07-04T12:04:17.738669,-0.116,-0.994,0.102,1.005930415,-81.16693138,1.28,1.037,-0.061,2.323,-0.336,-0.873,-0.317,-0.854,-0.976,-0.122,2.692,-0.088,0.102,-0.969,0.366,-0.305,0.183,0,0.174,-0.115,-1.04,-3.963,0.061,1.098,289.945,-0.839,-0.168,0.637,0.549,0.122,0.427,2404.112,-4,1,0,0,1,1,0,0,1,1,1
2018-07-04T12:04:17.738670,-0.12,-0.998,0.112,1.011408918,-80.65988778,0.793,0.61,-0.244,2.323,-0.338,-0.875,-0.316,1.098,-1.463,-0.305,2.692,-0.087,0.103,-0.973,0.366,-0.305,0.122,0,0.174,-0.115,-1.04,-0.427,-2.073,0.549,289.945,-0.845,-0.166,0.641,1.341,0.976,0.488,2404.112,149,1,0,0,1,1,0,0,1,1,1
2018-07-04T12:04:17.738671,-0.116,-0.992,0.104,1.00415935,-81.07453801,-0.915,0.427,-1.098,2.323,-0.338,-0.875,-0.316,2.195,-1.707,-0.305,2.692,-0.087,0.103,-0.973,0.183,-0.183,0.183,0,0.176,-0.107,-1.047,-1.402,0.305,0.183,289.945,-0.845,-0.166,0.641,0.671,2.317,-0.122,2404.112,-65,1,0,0,1,1,0,0,1,1,1
2018-07-04T12:04:17.738672,-0.116,-0.992,0.104,1.00415935,-81.07453801,-1.463,0.427,-0.854,2.323,-0.336,-0.872,-0.309,1.646,-1.463,-0.549,2.692,-0.087,0.103,-0.968,0.366,-0.061,0.244,0,0.176,-0.107,-1.047,2.195,-1.037,0.366,289.945,-0.843,-0.167,0.632,-0.122,2.744,-0.793,2404.112,64,1,0,0,1,1,0,0,1,1,1
2018-07-04T12:04:17.738673,-0.109,-0.988,0.096,0.998619547,-81.63672811,-1.22,0.671,-0.549,2.323,-0.336,-0.873,-0.308,-0.366,-0.854,-0.366,2.692,-0.088,0.102,-0.967,0.671,0.183,0.305,0,0.178,-0.113,-1.041,1.159,2.927,-0.915,289.945,-0.843,-0.167,0.632,0,2.134,-1.037,2404.112,134,1,0,0,1,1,0,0,1,1,1
2018-07-04T12:04:17.738674,-0.109,-0.988,0.096,0.998619547,-81.63672811,-0.488,0.915,-0.366,2.323,-0.336,-0.873,-0.308,-1.463,-0.305,-0.61,2.692,-0.088,0.102,-0.967,0.61,0.183,0.244,0,0.182,-0.116,-1.042,-1.098,1.463,1.463,289.945,-0.844,-0.172,0.63,-0.366,0.61,-0.183,2404.112,35,1,0,0,1,1,0,0,1,1,1
2018-07-04T12:04:17.738675,-0.113,-0.991,0.104,1.002828998,-81.1910124,-0.366,0.915,0.305,2.323,-0.336,-0.877,-0.313,-1.463,-0.366,-0.61,2.692,-0.089,0.103,-0.968,0.793,0.244,0.244,0,0.182,-0.116,-1.042,1.159,4.878,1.707,289.945,-0.844,-0.172,0.63,-0.244,0.061,-0.061,2404.112,102,1,0,0,1,1,0,0,1,1,1
2018-07-04T12:04:17.738676,-0.114,-0.998,0.108,1.010279169,-81.05784311,0.061,0.549,0.427,2.323,-0.336,-0.877,-0.313,-0.854,-0.732,-0.305,2.692,-0.089,0.103,-0.968,0.915,-0.122,0.244,0,0.184,-0.118,-1.045,4.695,2.378,-0.793,289.945,-0.845,-0.171,0.636,0.244,-0.366,-0.061,2404.112,84,1,0,0,1,1,0,0,1,1,1
2018-07-04T12:04:17.738677,-0.114,-0.998,0.108,1.010279169,-81.05784311,-0.427,0.488,0.061,2.323,-0.336,-0.874,-0.312,1.037,-1.463,-0.366,2.692,-0.088,0.102,-0.971,0.61,0.183,0.244,0,0.188,-0.115,-1.042,0.976,0.976,-0.183,289.945,-0.842,-0.167,0.637,0.305,0.122,0.488,2404.112,-121,1,0,0,1,1,0,0,1,1,1
2018-07-04T12:04:17.738678,-0.112,-0.991,0.099,1.002210557,-81.42217078,0.244,0.915,0.305,2.323,-0.337,-0.874,-0.309,-1.341,-1.22,0.366,2.692,-0.087,0.103,-0.972,0.305,1.159,0.427,0,0.178,-0.116,-1.039,0.366,-5.183,-0.732,289.945,-0.854,-0.177,0.637,1.524,5.793,-2.622,2404.112,149,1,0,0,1,1,0,0,1,1,1
2018-07-04T12:04:17.738679,-0.118,-0.983,0.106,0.995715321,-80.83363927,0.488,0.366,1.341,2.323,-0.338,-0.872,-0.309,-3.537,-0.305,0.488,2.692,-0.087,0.102,-0.969,0.183,0.854,0.305,0,0.168,-0.114,-1.042,-0.488,-1.22,0.732,289.945,-0.852,-0.175,0.619,1.402,5.305,0.305,2404.112,84,1,0,0,1,1,0,0,1,1,1
2018-07-04T12:04:17.738680,-0.122,-1,0.105,1.01287166,-80.85594774,-1.402,0.488,1.707,2.323,-0.339,-0.873,-0.319,-4.085,0,0.366,2.692,-0.087,0.104,-0.966,0.427,0.732,0.305,0,0.168,-0.114,-1.042,0.427,0.671,-0.549,289.945,-0.852,-0.175,0.619,1.037,4.634,0.366,2404.112,60,1,0,0,1,1,0,0,1,1,1
2018-07-04T12:04:17.738681,-0.122,-1.009,0.1,1.021256579,-81.1143309,-0.183,0.488,0.732,2.323,-0.341,-0.871,-0.317,-0.854,-1.159,0.366,2.692,-0.087,0.104,-0.966,0.366,0.183,0.305,0,0.174,-0.119,-1.039,1.28,2.866,-0.793,289.945,-0.852,-0.169,0.613,0.183,2.134,-0.61,2404.112,70,1,0,0,1,1,0,0,1,1,1
2018-07-04T12:04:17.738682,-0.122,-1.009,0.1,1.021256579,-81.1143309,-0.061,0.61,0.183,2.323,-0.341,-0.871,-0.317,-0.244,-1.22,0,2.692,-0.086,0.103,-0.966,1.037,-0.244,0.244,0,0.182,-0.114,-1.036,2.744,1.037,-0.244,289.945,-0.855,-0.17,0.619,-0.244,0.732,0.061,2404.112,226,1,0,0,1,1,0,0,1,1,1
2018-07-04T12:04:17.738683,-0.117,-0.99,0.105,1.00240411,-80.97706393,-0.671,0.976,-0.671,2.323,-0.339,-0.87,-0.315,-0.305,-1.037,-0.305,2.692,-0.086,0.102,-0.97,1.098,-0.183,0.183,0,0.182,-0.114,-1.036,-0.732,4.268,-0.549,289.945,-0.855,-0.17,0.619,-0.305,0.122,0.61,2404.112,37,1,0,0,1,1,0,0,1,1,1
2018-07-04T12:04:17.738684,-0.117,-0.99,0.105,1.00240411,-80.97706393,-1.22,0.854,-0.61,2.323,-0.339,-0.87,-0.315,0.122,-0.976,-0.549,2.692,-0.086,0.102,-0.97,1.22,-0.122,0.183,0,0.197,-0.113,-1.036,-0.488,6.22,1.646,289.945,-0.854,-0.172,0.623,-0.366,0.61,0,2404.112,113,1,0,0,1,1,0,0,1,1,1
2018-07-04T12:04:17.738685,-0.114,-0.976,0.106,0.988335975,-80.93798382,-0.061,0.061,1.646,2.323,-0.34,-0.872,-0.317,0.183,-1.524,-0.183,2.692,-0.086,0.103,-0.974,1.402,-0.122,0.183,0,0.197,-0.113,-1.036,2.927,2.5,1.585,339.96,-0.859,-0.173,0.628,-0.244,1.402,-0.854,2661.933,152,1,0,0,1,1,0,0,1,1,1
2018-07-04T12:04:17.738686,-0.123,-0.987,0.102,0.999850989,-80.80388219,0.488,0.061,2.744,2.323,-0.34,-0.873,-0.314,0.976,-1.768,0,2.692,-0.086,0.103,-0.974,0.671,-0.061,0.244,0,0.216,-0.111,-1.021,3.354,9.756,0.671,339.96,-0.859,-0.173,0.628,-2.073,2.256,-2.683,2661.933,104,1,0,0,1,1,0,0,1,1,1
2018-07-04T12:04:17.738687,-0.123,-0.987,0.102,0.999850989,-80.80388219,0.366,-0.366,3.72,2.323,-0.34,-0.873,-0.314,0.427,-1.707,0.305,2.692,-0.086,0.101,-0.968,0.854,0.061,0.244,0,0.172,-0.13,-1.017,3.415,31.829,-3.171,339.96,-0.874,-0.186,0.628,-4.878,2.866,-5.366,2661.933,-42,1,0,0,1,1,0,0,1,1,1
2018-07-04T12:04:17.738688,-0.134,-1.023,0.107,1.037272385,-80.48434411,1.463,-0.244,3.354,2.323,-0.341,-0.869,-0.311,0.854,-2.073,0.488,2.692,-0.09,0.097,-0.949,1.951,-0.122,0.244,0,0.172,-0.13,-1.017,-0.366,2.378,-2.378,339.96,-0.874,-0.186,0.628,-6.585,0.915,-7.073,2661.933,115,1,0,0,1,1,0,0,1,1,1
2018-07-04T12:04:17.738689,-0.134,-1.023,0.107,1.037272385,-80.48434411,4.024,-0.61,1.768,2.323,-0.341,-0.869,-0.311,0.427,-1.585,0,2.692,-0.09,0.097,-0.949,2.927,-0.915,0.244,0,0.239,-0.114,-1.044,-3.963,-12.561,-1.22,339.96,-0.887,-0.228,0.642,-4.573,-4.146,-5.671,2661.933,108,1,0,0,1,1,0,0,1,1,1
2018-07-04T12:04:17.738690,-0.124,-0.993,0.116,1.007413024,-80.29645224,4.878,-0.61,-0.427,2.323,-0.338,-0.864,-0.301,0.793,0,-2.256,2.692,-0.092,0.098,-0.968,3.476,-1.341,0.122,0,0.239,-0.114,-1.044,-4.024,21.402,-7.012,339.96,-0.887,-0.228,0.642,-1.707,-9.146,5.488,2661.933,16,1,0,0,1,1,0,0,1,1,1
2018-07-04T12:04:17.738691,-0.103,-0.935,0.125,0.948925181,-80.17223857,-2.134,1.341,-0.549,2.323,-0.337,-0.875,-0.303,-2.622,0.671,-2.317,2.692,-0.092,0.098,-0.968,1.951,-1.098,0.061,0,0.265,-0.073,-1.065,-18.476,36.646,5.854,339.96,-0.831,-0.191,0.667,1.463,5.183,6.098,2661.933,-26,1,0,0,1,1,0,0,1,1,1
2018-07-04T12:04:17.738692,-0.103,-0.935,0.125,0.948925181,-80.17223857,-2.195,-0.549,2.5,2.323,-0.337,-0.875,-0.303,-7.012,1.646,-1.463,2.692,-0.091,0.093,-0.978,0.671,-2.256,-0.122,0,0.258,-0.146,-1.02,15.366,3.902,12.439,339.96,-0.849,-0.163,0.613,8.476,12.378,0.915,2661.933,22,1,0,0,1,1,0,0,1,1,1
2018-07-04T12:04:17.738693,-0.125,-0.916,0.125,0.932901924,-79.0769079,4.268,-2.744,7.683,2.323,-0.33,-0.878,-0.331,-6.098,0.732,-0.793,2.692,-0.092,0.096,-0.943,-1.89,-3.72,-0.122,0,0.258,-0.146,-1.02,0.183,-5.854,6.341,339.96,-0.849,-0.163,0.613,10.793,7.744,-2.805,2661.933,229,1,0,0,1,1,0,0,1,1,1
2018-07-04T12:04:17.738694,-0.125,-0.916,0.125,0.932901924,-79.0769079,12.317,-4.573,12.561,2.323,-0.345,-0.865,-0.338,-1.341,-2.805,1.402,2.692,-0.092,0.096,-0.943,-3.354,-6.707,-0.549,0,0.283,-0.098,-1.054,7.805,15.366,10.61,339.96,-0.881,-0.178,0.576,-10.549,-7.683,-7.073,2661.933,103,1,0,0,1,1,0,0,1,1,1
2018-07-04T12:04:17.738695,-0.174,-0.985,0.151,1.011583907,-76.83557855,32.683,-10.122,20.793,2.323,-0.345,-0.865,-0.338,8.171,-6.098,0.305,2.692,-0.117,0.109,-0.941,-7.256,-11.159,-1.463,0,0.259,-0.103,-1.049,21.89,10.854,3.171,339.96,-0.799,-0.167,1.292,-19.695,-46.768,-6.585,2661.933,-42,1,0,0,1,1,0,0,1,1,1
2018-07-04T12:04:17.738696,-0.198,-1.098,0.208,1.134932597,-75.34309302,38.476,-11.768,20.244,2.323,-0.354,-0.89,-0.325,25.793,-13.415,-0.244,2.692,-0.133,0.102,-0.98,-5.305,-9.512,-1.951,0,0.259,-0.103,-1.049,-18.537,-5.915,6.646,339.96,-0.799,-0.167,1.292,-113.232,-133.963,-24.573,2661.933,-68,1,0,0,1,1,0,0,1,1,1
2018-07-04T12:04:17.738697,-0.198,-1.098,0.208,1.134932597,-75.34309302,32.317,-11.951,15.976,2.323,-0.354,-0.89,-0.325,48.232,-24.451,-0.915,2.692,-0.133,0.102,-0.98,-0.793,-14.39,-2.988,0,0.279,-0.113,-0.959,-8.537,-8.415,-9.634,339.96,-0.19,-0.356,0.754,28.354,-215.549,-34.39,2661.933,16,1,0,0,1,1,0,0,1,1,1
2018-07-04T12:04:17.738698,-0.203,-1.037,0.203,1.076005112,-74.52566621,12.012,-9.207,5.549,2.323,-0.341,-0.915,-0.214,35.732,-13.415,-4.634,2.692,-0.118,0.138,-1.038,-2.561,-12.073,-2.317,0,0.279,-0.113,-0.959,11.159,0.915,-2.195,339.96,-0.19,-0.356,0.754,59.085,-150.366,-107.012,2661.933,54,1,0,0,1,1,0,0,1,1,1
2018-07-04T12:04:17.738699,-0.203,-1.037,0.203,1.076005112,-74.52566621,-2.988,-0.671,-7.073,2.323,-0.364,-0.916,-0.196,19.634,-9.146,1.22,2.692,-0.118,0.138,-1.038,-3.354,-6.829,-1.22,0,0.193,-0.157,-0.875,31.524,-10.061,7.988,339.96,-0.447,-0.412,0.018,135.915,-60.732,-133.659,2661.933,-26,1,0,0,1,1,0,0,1,1,1
2018-07-04T12:04:17.738700,-0.205,-0.944,0.197,0.985885389,-73.23878895,-22.439,2.561,-4.268,2.323,-0.364,-0.916,-0.196,20.061,-10.915,1.951,2.692,-0.128,0.133,-0.999,4.39,2.134,0.488,0,0.19,-0.107,-1.032,-11.768,-4.451,-3.293,339.96,-1.019,0.189,1.448,68.476,-146.707,-25.366,2661.933,104,1,0,0,1,1,0,0,1,1,1
2018-07-04T12:04:17.738701,-0.165,-0.938,0.177,0.968709451,-75.53458407,-11.524,1.89,-1.951,2.323,-0.377,-0.902,-0.137,4.878,0.305,-1.463,2.692,-0.186,0.124,-0.917,6.22,-0.061,1.159,0,0.19,-0.107,-1.032,10.915,-20,-3.11,339.96,-1.019,0.189,1.448,-175.549,-171.281,3.72,2661.933,12,1,0,0,1,1,0,0,1,1,1
2018-07-04T12:04:17.738702,-0.165,-0.938,0.177,0.968709451,-75.53458407,3.171,3.963,-3.11,2.323,-0.337,-0.887,-0.077,4.878,3.72,-4.756,2.692,-0.186,0.124,-0.917,3.78,-0.671,1.22,0,0.234,-0.099,-1.104,-7.439,-65.549,0.61,339.96,0.11,-0.487,1.411,-168.232,-107.378,-28.963,2661.933,-19,1,0,0,1,1,0,0,1,1,1
2018-07-04T12:04:17.738703,-0.147,-0.859,0.216,0.897856336,-73.08219779,-12.561,2.866,7.744,2.323,-0.306,-0.899,-0.135,-18.659,5.122,-3.11,2.692,-0.125,0.146,-1.039,-3.354,5.366,3.11,0,0.205,-0.203,-1.125,-61.159,-102.317,25.244,339.96,0.005,-0.598,0.482,-35.244,48.659,44.268,2661.933,1,1,0,0,1,1,0,0,1,1,1
2018-07-04T12:04:17.738704,-0.147,-0.859,0.216,0.897856336,-73.08219779,-13.902,1.402,16.22,2.323,-0.369,-0.95,-0.236,-22.317,4.695,5.061,0,-0.125,0.146,-1.039,-7.195,6.707,2.439,0,0.166,-0.146,-1.138,30.915,86.159,-32.134,339.96,-0.423,-0.441,0.92,88.537,-11.037,13.415,2661.933,195,1,0,0,1,1,1,0,1.414,1,1
2018-07-04T12:04:17.738705,-0.245,-1.018,0.166,1.060143858,-73.79042289,-1.463,-2.317,30.854,2.323,-0.369,-0.95,-0.236,-31.159,6.22,10.976,0,-0.12,0.109,-0.995,0.854,10.732,1.89,0,0.15,0.052,-0.886,18.598,-28.171,-4.878,339.96,-0.055,-0.413,1.161,-14.634,-11.89,-14.939,2661.933,-26,1,0,0,1,1,1,0,1.414,1,1
2018-07-04T12:04:17.738706,-0.296,-1.172,0.18,1.222129289,-73.53276778,-3.232,-2.378,20.732,2.323,-0.372,-0.903,-0.263,-6.89,-1.28,5.915,0,-0.117,0.095,-0.851,4.451,6.28,0.915,0,0.15,0.052,-0.886,-5.61,-37.073,17.134,339.96,-0.055,-0.413,1.161,-27.622,22.683,9.573,2661.933,100,1,0,0,1,1,1,0,1.414,1,1
2018-07-04T12:04:17.738707,-0.296,-1.172,0.18,1.222129289,-73.53276778,-8.841,-2.012,2.561,2.323,-0.331,-0.813,-0.207,-14.939,6.098,-2.683,0,-0.117,0.095,-0.851,5.549,4.39,0.244,0,0.169,-0.067,-1.025,-21.159,-18.963,3.293,339.96,-0.214,-0.457,0.886,9.207,25.732,10.061,2661.933,97,1,0,0,1,1,1,0,1.414,1,1
2018-07-04T12:04:17.738708,-0.274,-1.058,0.163,1.10499276,-73.2303244,-2.378,-0.427,-17.561,2.323,-0.367,-0.922,-0.295,-18.293,10.427,-4.756,0,-0.134,0.125,-0.943,0.061,-2.256,-0.061,0,0.151,-0.148,-1.114,11.951,3.415,-3.171,339.96,-0.193,-0.414,0.974,-2.256,-10.366,-3.902,2661.933,170,1,0,0,1,1,1,0,1.414,1,1
2018-07-04T12:04:17.738709,-0.21,-0.876,0.144,0.912256543,-73.79230314,5.427,0.305,-11.646,2.323,-0.367,-0.922,-0.295,-8.293,5.366,-4.024,0,-0.126,0.149,-1.061,-0.793,-4.756,-0.183,0,0.151,-0.148,-1.114,22.317,7.195,0,339.96,-0.193,-0.414,0.974,-3.537,-7.927,-4.207,2661.933,137,1,0,0,1,1,1,0,1.414,1,1
2018-07-04T12:04:17.738710,-0.21,-0.876,0.144,0.912256543,-73.79230314,8.841,1.951,-2.805,2.323,-0.395,-0.967,-0.318,15.793,-6.646,-2.744,0,-0.126,0.149,-1.061,-0.488,-6.646,-0.61,0,0.163,-0.074,-1.076,7.012,-4.451,-3.232,339.96,-0.16,-0.449,1.033,-2.805,2.012,-0.366,2661.933,-25,1,0,0,1,1,1,0,1.414,1,1
2018-07-04T12:04:17.738711,-0.184,-0.858,0.175,0.894787684,-73.51351236,5.305,2.5,4.634,2.323,-0.395,-0.967,-0.318,25.976,-12.317,-0.488,0,-0.104,0.122,-0.988,0.671,-6.159,-0.976,0,0.168,-0.084,-1.043,18.293,-1.098,-4.024,339.96,-0.16,-0.449,1.033,1.22,9.756,5.305,2661.933,-75,1,0,0,1,1,1,0,1.414,1,1
2018-07-04T12:04:17.738712,-0.215,-0.998,0.181,1.036817245,-74.27237179,-7.195,0.427,7.988,2.323,-0.341,-0.866,-0.215,16.646,-10.488,1.707,0,-0.129,0.106,-0.916,-2.805,-0.915,-0.061,0,0.168,-0.084,-1.043,-13.11,-0.183,-5.427,339.96,-0.21,-0.428,0.967,5.244,4.146,2.378,2661.933,52,1,0,0,1,1,1,0,1.414,1,1
2018-07-04T12:04:17.738713,-0.215,-0.998,0.181,1.036817245,-74.27237179,-3.598,-1.829,7.317,2.323,-0.324,-0.855,-0.172,7.927,-6.829,3.293,0,-0.129,0.106,-0.916,-1.341,1.89,0.732,0,0.158,-0.079,-1.045,-12.5,3.902,-1.585,339.96,-0.214,-0.428,0.949,4.085,2.134,1.768,2661.933,-227,1,0,0,1,1,1,0,1.414,1,1
2018-07-04T12:04:17.738714,-0.255,-1.068,0.188,1.113998654,-73.47757883,3.354,-2.561,5.305,2.323,-0.324,-0.855,-0.172,3.902,-1.951,1.768,0,-0.161,0.117,-0.932,0.549,2.439,0.976,0,0.161,-0.096,-1.025,-9.817,-5.427,-5.427,339.96,-0.214,-0.428,0.949,-1.098,-0.305,-0.427,2661.933,76,1,0,0,1,1,1,0,1.414,1,1
2018-07-04T12:04:17.738715,-0.255,-1.068,0.188,1.113998654,-73.47757883,9.024,-0.549,0.305,2.323,-0.36,-0.919,-0.184,0,1.341,-0.488,0,-0.161,0.117,-0.932,0.305,-1.463,0.183,0,0.161,-0.096,-1.025,3.11,0.244,-5.183,339.96,-0.187,-0.446,0.962,-3.293,-4.024,-4.085,2661.933,220,1,0,0,1,1,1,0,1.414,1,1
2018-07-04T12:04:17.738716,-0.243,-0.958,0.215,1.01145341,-71.28956698,5.488,2.012,-5.183,2.323,-0.36,-0.919,-0.184,-1.098,1.28,-1.768,0,-0.154,0.13,-0.975,1.159,-2.561,-0.427,0,0.163,-0.099,-1.035,6.829,-3.293,1.341,339.96,-0.184,-0.438,0.999,0.366,1.341,0.61,2661.933,181,1,0,0,1,1,1,0,1.414,1,1
2018-07-04T12:04:17.738717,-0.22,-0.888,0.157,0.92822034,-73.07160614,-6.89,1.707,-5.793,2.323,-0.362,-0.919,-0.193,3.963,-4.39,-0.854,0,-0.123,0.133,-0.982,0.793,-2.317,-0.244,0,0.163,-0.099,-1.035,8.354,6.22,2.378,339.96,-0.184,-0.438,0.999,2.683,2.256,1.341,2661.933,192,1,0,0,1,1,1,0,1.414,1,1
2018-07-04T12:04:17.738718,-0.22,-0.888,0.157,0.92822034,-73.07160614,-6.463,0.915,-0.549,2.323,-0.36,-0.886,-0.193,-3.537,-1.646,0.671,0,-0.123,0.133,-0.982,0.854,0.549,0.366,0,0.155,-0.086,-1.054,11.829,13.049,-0.122,339.96,-0.196,-0.42,0.992,1.829,1.585,1.159,2661.933,90,1,0,0,1,1,1,0,1.414,1,1
2018-07-04T12:04:17.738719,-0.22,-0.958,0.136,0.992300358,-74.89139424,-4.512,1.28,5,2.323,-0.36,-0.886,-0.193,-10,1.524,0.976,0,-0.125,0.127,-0.969,0.732,3.11,0.793,0,0.174,-0.091,-1.065,-9.024,12.317,-5.305,339.96,-0.196,-0.42,0.992,1.402,1.463,1.463,2661.933,66,1,0,0,1,1,1,0,1.414,1,1
2018-07-04T12:04:17.738720,-0.22,-0.958,0.136,0.992300358,-74.89139424,-2.683,1.341,7.073,2.323,-0.364,-0.899,-0.227,-11.89,3.293,0.488,0,-0.125,0.127,-0.969,1.28,3.598,0.915,0,0.174,-0.091,-1.065,-7.439,3.78,-3.415,339.96,-0.202,-0.429,0.962,1.768,1.951,1.707,2661.933,87,1,0,0,1,1,1,0,1.414,1,1
2018-07-04T12:04:17.738721,-0.247,-1.031,0.187,1.076540292,-73.27510572,0.915,1.463,5.732,2.323,-0.364,-0.899,-0.227,-10,3.11,0,0,-0.141,0.118,-0.955,0.732,1.768,0.671,0,0.201,-0.087,-1.045,-9.634,0,2.744,339.96,-0.202,-0.429,0.962,2.073,1.646,1.341,2661.933,-90,1,0,0,1,1,1,0,1.414,1,1
2018-07-04T12:04:17.738722,-0.247,-1.031,0.187,1.076540292,-73.27510572,3.11,1.768,1.829,2.323,-0.357,-0.908,-0.233,-2.195,0.488,0.427,0,-0.137,0.116,-0.949,-0.305,-0.61,0.244,0,0.201,-0.087,-1.045,-1.768,6.22,-0.122,339.96,-0.204,-0.423,0.968,0.122,-0.732,-0.427,2661.933,-139,1,0,0,1,1,1,0,1.414,1,1
2018-07-04T12:04:17.738723,-0.244,-0.984,0.208,1.034918354,-71.95243279,-1.707,-0.122,-4.146,2.323,-0.357,-0.897,-0.224,2.256,-2.5,0.549,0,-0.137,0.116,-0.949,0.427,-1.341,0,0,0.189,-0.075,-1.03,7.805,-0.793,3.293,339.96,-0.2,-0.419,0.982,-0.061,-0.427,-0.427,2661.933,-353,1,0,0,1,1,1,0,1.414,1,1
2018-07-04T12:04:17.738724,-0.225,-0.93,0.152,0.968828674,-73.72385067,-2.317,-1.28,-2.866,2.323,-0.357,-0.897,-0.224,5.854,-4.39,0.061,0,-0.128,0.122,-0.971,1.402,-1.524,-0.061,0,0.185,-0.075,-1.034,2.927,-2.012,-0.732,234.914,-0.2,-0.419,0.982,-0.366,-0.061,-0.732,2651.9,341,1,1,0,1.414,1,1,0,1.414,1,1
2018-07-04T12:04:17.738725,-0.225,-0.93,0.152,0.968828674,-73.72385067,-1.22,-1.28,-0.671,2.323,-0.36,-0.897,-0.215,1.646,-1.768,-0.793,0,-0.131,0.128,-0.977,0.854,-0.61,0,0,0.185,-0.075,-1.034,2.622,2.988,-2.317,234.914,-0.191,-0.426,0.982,-2.378,2.195,0,2651.9,340,1,1,0,1.414,1,1,0,1.414,1,1
2018-07-04T12:04:17.738726,-0.225,-0.933,0.143,0.970341692,-74.05314806,0.732,1.768,4.024,2.323,-0.362,-0.901,-0.211,0.976,-1.829,0,0,-0.131,0.128,-0.977,-0.061,-0.122,0.183,0,0.19,-0.095,-1.05,2.073,-0.305,-1.89,234.914,-0.198,-0.436,0.973,-1.098,2.378,0.488,2651.9,531,1,1,0,1.414,1,1,0,1.414,1,1
2018-07-04T12:04:17.738727,-0.245,-0.979,0.19,1.02692064,-72.42748309,1.28,1.951,5.732,2.323,-0.362,-0.901,-0.211,-1.28,-1.707,1.463,0,-0.141,0.128,-0.975,-0.427,0,0.305,0,0.19,-0.095,-1.05,2.195,2.378,-0.183,234.914,-0.198,-0.436,0.973,0.061,2.744,1.463,2651.9,326,1,1,0,1.414,1,1,0,1.414,1,1
2018-07-04T12:04:17.738728,-0.245,-0.979,0.19,1.02692064,-72.42748309,2.805,1.646,5,2.323,-0.369,-0.909,-0.21,-1.463,-1.768,2.073,0,-0.141,0.128,-0.975,-1.037,-0.671,0.122,0,0.19,-0.094,-1.045,2.134,3.72,0,234.914,-0.207,-0.435,0.971,0.61,2.134,1.098,2651.9,40,1,1,0,1.414,1,1,0,1.414,1,1
2018-07-04T12:04:17.738729,-0.258,-0.995,0.208,1.048738766,-71.57871284,-2.134,-0.244,0.671,2.323,-0.363,-0.887,-0.215,-4.634,-0.732,2.378,0,-0.143,0.121,-0.942,0.244,-0.183,0.183,0,0.192,-0.097,-1.041,2.073,2.073,0.183,234.914,-0.207,-0.433,0.972,0.427,0.366,0.549,2651.9,-286,1,1,0,1.414,1,1,0,1.414,1,1
2018-07-04T12:04:17.738730,-0.241,-0.972,0.164,1.014771403,-73.30572321,-3.354,-0.549,-1.463,2.323,-0.361,-0.885,-0.2,2.561,-2.256,-0.122,0,-0.14,0.12,-0.951,1.463,0.061,0.183,0,0.193,-0.092,-1.035,0.61,0.61,0.488,234.914,-0.207,-0.433,0.972,1.524,0,0.305,2651.9,-1363,1,1,0,1.414,1,1,0,1.414,1,1
2018-07-04T12:04:17.738731,-0.232,-0.938,0.154,0.978460015,-73.46565047,-2.439,0.732,-1.037,2.323,-0.361,-0.885,-0.2,-4.329,-0.183,-0.671,0,-0.139,0.126,-0.972,1.707,0.305,0.305,0,0.193,-0.092,-1.035,3.11,0.549,-1.22,234.914,-0.202,-0.428,0.978,1.28,0.488,0.427,2651.9,-346,1,1,0,1.414,1,1,0,1.414,1,1
2018-07-04T12:04:17.738732,-0.232,-0.938,0.154,0.978460015,-73.46565047,-0.549,1.402,1.28,2.323,-0.368,-0.904,-0.219,-4.756,0.61,-1.159,0,-0.139,0.126,-0.972,1.28,0.061,0.305,0,0.195,-0.093,-1.033,-0.366,1.768,0.061,234.914,-0.202,-0.424,0.977,1.463,1.22,0.793,2651.9,379,1,1,0,1.414,1,1,0,1.414,1,1
2018-07-04T12:04:17.738733,-0.252,-0.96,0.185,1.009618245,-71.96257176,0.61,1.524,2.927,2.323,-0.368,-0.904,-0.219,-4.512,0.305,-0.244,0,-0.138,0.126,-0.975,0.732,0.488,0.366,0,0.199,-0.084,-1.055,-0.854,0.549,-0.366,234.914,-0.202,-0.424,0.977,1.829,2.012,1.463,2651.9,741,1,1,0,1.414,1,1,0,1.414,1,1
2018-07-04T12:04:17.738734,-0.252,-0.96,0.185,1.009618245,-71.96257176,-0.854,1.098,3.354,2.323,-0.372,-0.904,-0.228,-3.415,-0.793,0.793,0,-0.138,0.126,-0.975,1.098,0.854,0.366,0,0.199,-0.084,-1.055,-2.5,-0.488,2.256,234.914,-0.21,-0.42,0.979,1.341,1.646,0.976,2651.9,691,1,1,0,1.414,1,1,0,1.414,1,1
2018-07-04T12:04:17.738735,-0.258,-0.994,0.177,1.042079172,-72.52770927,-2.195,0.366,2.012,2.323,-0.369,-0.884,-0.217,-1.829,-1.28,1.098,0,-0.136,0.121,-0.953,1.707,0.427,0.244,0,0.202,-0.091,-1.052,1.463,3.963,0.732,234.914,-0.21,-0.42,0.979,-0.061,0.366,0.061,2651.9,531,1,1,0,1.414,1,1,0,1.414,1,1
2018-07-04T12:04:17.738736,-0.244,-0.969,0.163,1.012455431,-73.15242374,-1.707,0.732,-1.951,2.323,-0.369,-0.884,-0.217,-3.354,-0.305,0.061,0,-0.139,0.118,-0.954,1.28,0.488,0.366,0,0.202,-0.091,-1.052,0.671,0.793,2.073,234.914,-0.208,-0.427,0.976,-0.427,0.244,0.183,2651.9,421,1,1,0,1.414,1,1,0,1.414,1,1
2018-07-04T12:04:17.738737,-0.244,-0.969,0.163,1.012455431,-73.15242374,-0.732,0.61,-1.22,2.323,-0.366,-0.89,-0.227,-3.476,0.183,-0.732,0,-0.139,0.118,-0.954,0.976,0.122,0.305,0,0.2,-0.089,-1.033,1.159,-0.915,0.427,234.914,-0.206,-0.425,0.973,-0.366,0.061,-0.061,2651.9,298,1,1,0,1.414,1,1,0,1.414,1,1
2018-07-04T12:04:17.738738,-0.242,-0.945,0.167,0.989685809,-72.71690349,0.488,0,0.244,2.323,-0.371,-0.906,-0.234,3.537,-2.195,-0.61,0,-0.136,0.121,-0.972,1.463,0.183,0.122,0,0.196,-0.098,-1.028,1.28,0.488,-0.671,234.914,-0.206,-0.425,0.973,-0.305,-0.183,-0.427,2651.9,182,1,1,0,1.414,1,1,0,1.414,1,1
2018-07-04T12:04:17.738739,-0.242,-0.945,0.167,0.989685809,-72.71690349,1.768,-0.183,1.402,2.323,-0.371,-0.906,-0.234,7.866,-3.963,-0.183,0,-0.134,0.12,-0.968,1.829,-0.854,-0.061,0,0.196,-0.098,-1.028,2.927,0,0.122,234.914,-0.204,-0.427,0.978,-0.122,0.244,-0.244,2651.9,56,1,1,0,1.414,1,1,0,1.414,1,1
2018-07-04T12:04:17.738740,-0.252,-0.97,0.176,1.01753624,-72.41750444,0.671,0.366,1.768,2.323,-0.371,-0.891,-0.203,6.098,-4.085,0.671,0,-0.134,0.12,-0.968,2.073,-0.915,-0.061,0,0.207,-0.093,-1.044,0.549,1.524,0.549,234.914,-0.204,-0.427,0.978,-1.159,0.671,-0.366,2651.9,-4,1,1,0,1.414,1,1,0,1.414,1,1
2018-07-04T12:04:17.738741,-0.254,-0.979,0.167,1.025107799,-72.7503028,-3.354,0.854,-0.671,2.323,-0.371,-0.891,-0.203,-0.366,-1.951,0.488,0,-0.139,0.117,-0.961,1.585,-0.183,0.122,0,0.207,-0.093,-1.044,0.488,6.524,0.061,234.914,-0.207,-0.429,0.977,0.915,1.524,0.976,2651.9,-82,1,1,0,1.414,1,1,0,1.414,1,1
2018-07-04T12:04:17.738742,-0.254,-0.979,0.167,1.025107799,-72.7503028,-0.061,0.854,-0.976,2.323,-0.369,-0.891,-0.206,-1.098,-0.915,-0.061,0,-0.139,0.117,-0.961,0.976,0.244,0.305,0,0.194,-0.088,-1.046,0.976,-0.854,0.732,234.914,-0.207,-0.426,0.973,0.61,0.427,0.183,2651.9,-13,1,1,0,1.414,1,1,0,1.414,1,1
2018-07-04T12:04:17.738743,-0.244,-0.951,0.171,0.996583163,-72.60387543,0.61,0.976,-0.244,2.323,-0.371,-0.895,-0.211,-2.866,-0.732,0.305,0,-0.143,0.117,-0.963,0.732,0.061,0.244,0,0.197,-0.099,-1.041,1.037,1.037,-0.549,234.914,-0.207,-0.426,0.973,0.244,0,0.061,2651.9,91,1,1,0,1.414,1,1,0,1.414,1,1
2018-07-04T12:04:17.738744,-0.244,-0.951,0.171,0.996583163,-72.60387543,-1.707,1.402,0.244,2.323,-0.371,-0.895,-0.211,-3.963,0,-0.244,0,-0.143,0.117,-0.963,0.671,0.305,0.305,0,0.197,-0.099,-1.041,1.768,-1.585,-0.122,234.914,-0.206,-0.429,0.978,0.549,0.427,0.305,2651.9,129,1,1,0,1.414,1,1,0,1.414,1,1
2018-07-04T12:04:17.738745,-0.25,-0.971,0.17,1.016976401,-72.70583588,-2.988,1.159,0.244,2.323,-0.368,-0.892,-0.218,-3.841,0.244,-0.366,0,-0.14,0.116,-0.964,0.305,0.976,0.427,0,0.19,-0.095,-1.033,0.732,-9.39,1.951,234.914,-0.206,-0.429,0.978,0.793,0.854,0.488,2651.9,438,1,1,0,1.414,1,1,0,1.414,1,1
2018-07-04T12:04:17.738746,-0.25,-0.971,0.17,1.016976401,-72.70583588,-1.037,0.549,0.122,2.323,-0.368,-0.892,-0.218,-3.049,0.183,-0.244,0,-0.138,0.118,-0.963,0.122,1.22,0.488,0,0.19,-0.095,-1.033,-2.561,-17.195,2.195,234.914,-0.209,-0.425,0.977,0.549,-0.427,-0.183,2651.9,281,1,1,0,1.414,1,1,0,1.414,1,1
2018-07-04T12:04:17.738747,-0.252,-0.975,0.164,1.020306327,-72.86152922,-1.098,0.549,-0.976,2.323,-0.371,-0.893,-0.226,-3.232,0.549,-0.305,0,-0.138,0.118,-0.963,0.061,0.976,0.488,0,0.185,-0.092,-1.04,0.061,-5.549,0.305,234.914,-0.203,-0.423,0.973,-0.732,-0.366,-0.427,2651.9,131,1,1,0,1.414,1,1,0,1.414,1,1
2018-07-04T12:04:17.738748,-0.248,-0.961,0.166,1.006270838,-72.74832574,-0.732,0.976,-1.098,2.323,-0.371,-0.89,-0.224,-1.037,0,-0.793,0,-0.136,0.118,-0.962,0.366,0.488,0.305,0,0.182,-0.093,-1.051,-1.951,-0.427,0.61,234.914,-0.203,-0.423,0.973,0.366,0.549,0.488,2651.9,68,1,1,0,1.414,1,1,0,1.414,1,1
2018-07-04T12:04:17.738749,-0.248,-0.961,0.166,1.006270838,-72.74832574,-0.976,0.854,-0.976,2.323,-0.371,-0.89,-0.224,-2.927,0.427,-1.037,0,-0.136,0.119,-0.967,0.427,0.549,0.366,0,0.182,-0.093,-1.051,1.524,1.89,0.427,234.914,-0.207,-0.425,0.977,0.244,0.61,0.488,2651.9,-125,1,1,0,1.414,1,1,0,1.414,1,1
2018-07-04T12:04:17.738750,-0.243,-0.961,0.168,1.005382514,-72.91210116,-0.976,0.671,-0.366,2.323,-0.368,-0.895,-0.227,-1.707,0.183,-1.341,0,-0.136,0.119,-0.967,0,0.305,0.305,0,0.177,-0.09,-1.045,1.951,-0.732,2.134,234.914,-0.208,-0.426,0.978,0.122,0.244,0.122,2651.9,-67,1,1,0,1.414,1,1,0,1.414,1,1
2018-07-04T12:04:17.738751,-0.241,-0.966,0.162,1.008702632,-73.26878293,-0.122,0.366,0.244,2.323,-0.368,-0.895,-0.227,-1.341,0.061,-0.915,0,-0.135,0.118,-0.968,-0.244,0.305,0.305,0,0.17,-0.093,-1.04,0.061,-0.793,0,234.914,-0.208,-0.426,0.978,-0.183,0.488,0,2651.9,-114,1,1,0,1.414,1,1,0,1.414,1,1
2018-07-04T12:04:17.738752,-0.241,-0.966,0.162,1.008702632,-73.26878293,-0.854,0.854,0.244,2.323,-0.366,-0.895,-0.229,-0.488,-0.671,-0.366,0,-0.135,0.118,-0.968,-0.061,0.366,0.305,0,0.17,-0.093,-1.04,0.061,-0.183,-0.427,234.914,-0.205,-0.426,0.974,-0.183,0.366,-0.122,2651.9,-116,1,1,0,1.414,1,1,0,1.414,1,1
2018-07-04T12:04:17.738753,-0.25,-0.969,0.166,1.014404752,-72.79256957,-1.037,1.098,-0.183,2.323,-0.365,-0.89,-0.225,-1.707,-0.61,0.061,0,-0.135,0.12,-0.963,0.061,0.488,0.305,0,0.176,-0.092,-1.043,0.854,-5.915,-0.427,234.914,-0.205,-0.426,0.974,0.061,0.305,-0.061,2651.9,-70,1,1,0,1.414,1,1,0,1.414,1,1
2018-07-04T12:04:17.738754,-0.25,-0.969,0.166,1.014404752,-72.79256957,-1.22,1.098,-0.244,2.323,-0.365,-0.89,-0.225,-3.476,0.183,0.122,0,-0.135,0.121,-0.957,0.061,0.976,0.488,0,0.176,-0.092,-1.043,0.183,-2.805,0.061,234.914,-0.204,-0.429,0.976,-0.183,0.183,-0.183,2651.9,34,1,1,0,1.414,1,1,0,1.414,1,1
2018-07-04T12:04:17.738755,-0.251,-0.968,0.168,1.014026134,-72.67106599,-0.549,0.671,0,2.323,-0.369,-0.889,-0.231,-2.683,0,0.122,0,-0.135,0.121,-0.957,0.305,0.366,0.366,0,0.167,-0.094,-1.049,0.793,0.732,0.488,234.914,-0.204,-0.429,0.976,-0.854,0.122,-0.244,2651.9,34,1,1,0,1.414,1,1,0,1.414,1,1
2018-07-04T12:04:17.738756,-0.245,-0.963,0.167,1.007612525,-72.88665903,-3.476,0.976,-0.61,2.323,-0.367,-0.886,-0.223,-5.427,1.28,-0.976,0,-0.136,0.122,-0.963,0,1.037,0.427,0,0.169,-0.098,-1.048,1.524,1.402,-0.427,234.914,-0.204,-0.429,0.976,0.183,0.427,0.244,2651.9,145,1,1,0,1.414,1,1,0,1.414,1,1
2018-07-04T12:04:17.738757,-1.026,0.135,-0.066,1.036945997,7.480571862,-0.793,0.854,1.28,0,-0.972,0.313,0.134,2.012,1.951,-5.061,0,0.092,0.931,0.318,1.28,-3.049,-0.366,484.474,-0.527,0.041,-0.929,2.439,10.061,-0.671,759.922,-0.943,-0.285,0.073,-33.659,-12.988,-1.768,2099.746,566,1,1,0,1.414,1,0,0,1,1,1
